"USUBJID","ARM","AESEQ","AEBODSYS","AEDECOD","AETERM","AESEV","AESER","ASTDY","AENDY"
"01-701-1015","Placebo",1,"GENERAL DISORDERS AND ADMINISTRATION SITE CONDITIONS","APPLICATION SITE ERYTHEMA","APPLICATION SITE ERYTHEMA","MILD","N",2,
"01-701-1015","Placebo",2,"GENERAL DISORDERS AND ADMINISTRATION SITE CONDITIONS","APPLICATION SITE PRURITUS","APPLICATION SITE PRURITUS","MILD","N",2,
"01-701-1015","Placebo",3,"GASTROINTESTINAL DISORDERS","DIARRHOEA","DIARRHOEA","MILD","N",8,10
"01-701-1023","Placebo",2,"SKIN AND SUBCUTANEOUS TISSUE DISORDERS","ERYTHEMA","ERYTHEMA","MODERATE","N",3,
"01-701-1023","Placebo",1,"SKIN AND SUBCUTANEOUS TISSUE DISORDERS","ERYTHEMA","ERYTHEMA","MILD","N",3,26
"01-701-1023","Placebo",4,"SKIN AND SUBCUTANEOUS TISSUE DISORDERS","ERYTHEMA","ERYTHEMA","MILD","N",3,26
"01-701-1023","Placebo",3,"CARDIAC DISORDERS","ATRIOVENTRICULAR BLOCK SECOND DEGREE","ATRIOVENTRICULAR BLOCK SECOND DEGREE","MILD","N",22,
"01-701-1028","Xanomeline High Dose",1,"GENERAL DISORDERS AND ADMINISTRATION SITE CONDITIONS","APPLICATION SITE ERYTHEMA","APPLICATION SITE ERYTHEMA","MILD","N",3,
"01-701-1028","Xanomeline High Dose",2,"GENERAL DISORDERS AND ADMINISTRATION SITE CONDITIONS","APPLICATION SITE PRURITUS","APPLICATION SITE PRURITUS","MILD","N",21,
"01-701-1034","Xanomeline High Dose",1,"GENERAL DISORDERS AND ADMINISTRATION SITE CONDITIONS","APPLICATION SITE PRURITUS","APPLICATION SITE PRURITUS","MILD","N",58,
"01-701-1034","Xanomeline High Dose",2,"GENERAL DISORDERS AND ADMINISTRATION SITE CONDITIONS","FATIGUE","FATIGUE","MILD","N",125,
"01-701-1047","Placebo",1,"GASTROINTESTINAL DISORDERS","HIATUS HERNIA","HIATUS HERNIA","MODERATE","N",1,1
"01-701-1047","Placebo",2,"GASTROINTESTINAL DISORDERS","HIATUS HERNIA","HIATUS HERNIA","MODERATE","N",1,1
"01-701-1047","Placebo",3,"INFECTIONS AND INFESTATIONS","UPPER RESPIRATORY TRACT INFECTION","UPPER RESPIRATORY TRACT INFECTION","MILD","N",23,
"01-701-1047","Placebo",4,"CARDIAC DISORDERS","BUNDLE BRANCH BLOCK LEFT","BUNDLE BRANCH BLOCK LEFT","MILD","N",27,
"01-701-1097","Xanomeline Low Dose",2,"SKIN AND SUBCUTANEOUS TISSUE DISORDERS","PRURITUS GENERALISED","PRURITUS GENERALISED","MODERATE","N",51,51
"01-701-1097","Xanomeline Low Dose",10,"GENERAL DISORDERS AND ADMINISTRATION SITE CONDITIONS","APPLICATION SITE PRURITUS","APPLICATION SITE PRURITUS","MODERATE","N",52,
"01-701-1097","Xanomeline Low Dose",5,"SKIN AND SUBCUTANEOUS TISSUE DISORDERS","PRURITUS GENERALISED","PRURITUS GENERALISED","MODERATE","N",80,80
"01-701-1097","Xanomeline Low Dose",6,"SKIN AND SUBCUTANEOUS TISSUE DISORDERS","PRURITUS GENERALISED","PRURITUS GENERALISED","MODERATE","N",90,90
"01-701-1097","Xanomeline Low Dose",7,"SKIN AND SUBCUTANEOUS TISSUE DISORDERS","PRURITUS GENERALISED","PRURITUS GENERALISED","MODERATE","N",109,110
"01-701-1097","Xanomeline Low Dose",1,"SKIN AND SUBCUTANEOUS TISSUE DISORDERS","ERYTHEMA","ERYTHEMA","MILD","N",3,
"01-701-1097","Xanomeline Low Dose",3,"GENERAL DISORDERS AND ADMINISTRATION SITE CONDITIONS","APPLICATION SITE VESICLES","APPLICATION SITE VESICLES","MILD","N",51,53
"01-701-1097","Xanomeline Low Dose",4,"GENERAL DISORDERS AND ADMINISTRATION SITE CONDITIONS","APPLICATION SITE PRURITUS","APPLICATION SITE PRURITUS","MILD","N",52,
"01-701-1097","Xanomeline Low Dose",8,"RESPIRATORY, THORACIC AND MEDIASTINAL DISORDERS","PHARYNGOLARYNGEAL PAIN","PHARYNGOLARYNGEAL PAIN","MILD","N",109,112
"01-701-1097","Xanomeline Low Dose",9,"RESPIRATORY, THORACIC AND MEDIASTINAL DISORDERS","NASAL CONGESTION","NASAL CONGESTION","MILD","N",109,112
"01-701-1111","Xanomeline Low Dose",7,"MUSCULOSKELETAL AND CONNECTIVE TISSUE DISORDERS","ARTHRALGIA","ARTHRALGIA","MODERATE","N",7,
"01-701-1111","Xanomeline Low Dose",8,"INFECTIONS AND INFESTATIONS","CELLULITIS","CELLULITIS","MODERATE","N",7,
"01-701-1111","Xanomeline Low Dose",6,"RENAL AND URINARY DISORDERS","MICTURITION URGENCY","MICTURITION URGENCY","MILD","N",1,
"01-701-1115","Xanomeline Low Dose",5,"GENERAL DISORDERS AND ADMINISTRATION SITE CONDITIONS","APPLICATION SITE ERYTHEMA","APPLICATION SITE ERYTHEMA","MODERATE","N",3,
"01-701-1115","Xanomeline Low Dose",6,"GENERAL DISORDERS AND ADMINISTRATION SITE CONDITIONS","APPLICATION SITE PRURITUS","APPLICATION SITE PRURITUS","MODERATE","N",3,
"01-701-1115","Xanomeline Low Dose",7,"GENERAL DISORDERS AND ADMINISTRATION SITE CONDITIONS","FATIGUE","FATIGUE","MODERATE","N",46,
"01-701-1115","Xanomeline Low Dose",8,"GENERAL DISORDERS AND ADMINISTRATION SITE CONDITIONS","APPLICATION SITE IRRITATION","APPLICATION SITE IRRITATION","MODERATE","N",51,
"01-701-1115","Xanomeline Low Dose",9,"GENERAL DISORDERS AND ADMINISTRATION SITE CONDITIONS","APPLICATION SITE DERMATITIS","APPLICATION SITE DERMATITIS","MODERATE","N",51,
"01-701-1115","Xanomeline Low Dose",1,"GENERAL DISORDERS AND ADMINISTRATION SITE CONDITIONS","APPLICATION SITE ERYTHEMA","APPLICATION SITE ERYTHEMA","MILD","N",3,
"01-701-1115","Xanomeline Low Dose",2,"GENERAL DISORDERS AND ADMINISTRATION SITE CONDITIONS","APPLICATION SITE PRURITUS","APPLICATION SITE PRURITUS","MILD","N",3,
"01-701-1115","Xanomeline Low Dose",3,"GENERAL DISORDERS AND ADMINISTRATION SITE CONDITIONS","APPLICATION SITE IRRITATION","APPLICATION SITE IRRITATION","MILD","N",27,27
"01-701-1115","Xanomeline Low Dose",4,"GENERAL DISORDERS AND ADMINISTRATION SITE CONDITIONS","APPLICATION SITE IRRITATION","APPLICATION SITE IRRITATION","MILD","N",27,27
"01-701-1130","Placebo",1,"INFECTIONS AND INFESTATIONS","URINARY TRACT INFECTION","URINARY TRACT INFECTION","MILD","N",23,30
"01-701-1130","Placebo",2,"GENERAL DISORDERS AND ADMINISTRATION SITE CONDITIONS","PYREXIA","PYREXIA","MILD","N",23,23
"01-701-1130","Placebo",3,"INFECTIONS AND INFESTATIONS","URINARY TRACT INFECTION","URINARY TRACT INFECTION","MILD","N",23,30
"01-701-1130","Placebo",4,"EYE DISORDERS","EYE SWELLING","EYE SWELLING","MILD","N",84,84
"01-701-1130","Placebo",5,"EYE DISORDERS","EYE ALLERGY","EYE ALLERGY","MILD","N",84,84
"01-701-1130","Placebo",6,"EYE DISORDERS","EYE PRURITUS","EYE PRURITUS","MILD","N",97,
"01-701-1130","Placebo",7,"SKIN AND SUBCUTANEOUS TISSUE DISORDERS","PRURITUS","PRURITUS","MILD","N",97,
"01-701-1130","Placebo",8,"RESPIRATORY, THORACIC AND MEDIASTINAL DISORDERS","NASAL CONGESTION","NASAL CONGESTION","MILD","N",97,
"01-701-1133","Xanomeline High Dose",3,"GENERAL DISORDERS AND ADMINISTRATION SITE CONDITIONS","APPLICATION SITE ERYTHEMA","APPLICATION SITE ERYTHEMA","MODERATE","N",61,
"01-701-1133","Xanomeline High Dose",4,"GENERAL DISORDERS AND ADMINISTRATION SITE CONDITIONS","APPLICATION SITE PRURITUS","APPLICATION SITE PRURITUS","MODERATE","N",61,
"01-701-1133","Xanomeline High Dose",1,"GENERAL DISORDERS AND ADMINISTRATION SITE CONDITIONS","APPLICATION SITE ERYTHEMA","APPLICATION SITE ERYTHEMA","MILD","N",61,
"01-701-1133","Xanomeline High Dose",2,"GENERAL DISORDERS AND ADMINISTRATION SITE CONDITIONS","APPLICATION SITE PRURITUS","APPLICATION SITE PRURITUS","MILD","N",61,
"01-701-1146","Xanomeline High Dose",7,"GENERAL DISORDERS AND ADMINISTRATION SITE CONDITIONS","APPLICATION SITE ERYTHEMA","APPLICATION SITE ERYTHEMA","MODERATE","N",22,
"01-701-1146","Xanomeline High Dose",8,"GENERAL DISORDERS AND ADMINISTRATION SITE CONDITIONS","APPLICATION SITE PRURITUS","APPLICATION SITE PRURITUS","MODERATE","N",22,
"01-701-1146","Xanomeline High Dose",9,"GENERAL DISORDERS AND ADMINISTRATION SITE CONDITIONS","APPLICATION SITE PAIN","APPLICATION SITE PAIN","MODERATE","N",34,
"01-701-1146","Xanomeline High Dose",10,"GENERAL DISORDERS AND ADMINISTRATION SITE CONDITIONS","APPLICATION SITE VESICLES","APPLICATION SITE VESICLES","MODERATE","N",38,
"01-701-1146","Xanomeline High Dose",11,"GENERAL DISORDERS AND ADMINISTRATION SITE CONDITIONS","APPLICATION SITE IRRITATION","APPLICATION SITE IRRITATION","MODERATE","N",38,
"01-701-1146","Xanomeline High Dose",3,"GENERAL DISORDERS AND ADMINISTRATION SITE CONDITIONS","APPLICATION SITE IRRITATION","APPLICATION SITE IRRITATION","MILD","N",13,14
"01-701-1146","Xanomeline High Dose",4,"GENERAL DISORDERS AND ADMINISTRATION SITE CONDITIONS","FATIGUE","FATIGUE","MILD","N",15,
"01-701-1146","Xanomeline High Dose",5,"GENERAL DISORDERS AND ADMINISTRATION SITE CONDITIONS","APPLICATION SITE ERYTHEMA","APPLICATION SITE ERYTHEMA","MILD","N",22,
"01-701-1146","Xanomeline High Dose",6,"GENERAL DISORDERS AND ADMINISTRATION SITE CONDITIONS","APPLICATION SITE PRURITUS","APPLICATION SITE PRURITUS","MILD","N",22,
"01-701-1148","Xanomeline High Dose",3,"INFECTIONS AND INFESTATIONS","LOWER RESPIRATORY TRACT INFECTION","LOWER RESPIRATORY TRACT INFECTION","MODERATE","N",51,80
"01-701-1148","Xanomeline High Dose",4,"INFECTIONS AND INFESTATIONS","LOWER RESPIRATORY TRACT INFECTION","LOWER RESPIRATORY TRACT INFECTION","MODERATE","N",51,80
"01-701-1148","Xanomeline High Dose",5,"MUSCULOSKELETAL AND CONNECTIVE TISSUE DISORDERS","FLANK PAIN","FLANK PAIN","MODERATE","N",115,117
"01-701-1148","Xanomeline High Dose",6,"RENAL AND URINARY DISORDERS","CALCULUS URETHRAL","CALCULUS URETHRAL","MODERATE","N",117,117
"01-701-1148","Xanomeline High Dose",1,"GENERAL DISORDERS AND ADMINISTRATION SITE CONDITIONS","APPLICATION SITE ERYTHEMA","APPLICATION SITE ERYTHEMA","MILD","N",3,
"01-701-1148","Xanomeline High Dose",2,"GENERAL DISORDERS AND ADMINISTRATION SITE CONDITIONS","APPLICATION SITE PRURITUS","APPLICATION SITE PRURITUS","MILD","N",3,
"01-701-1148","Xanomeline High Dose",7,"RESPIRATORY, THORACIC AND MEDIASTINAL DISORDERS","EPISTAXIS","EPISTAXIS","MILD","N",134,134
"01-701-1148","Xanomeline High Dose",10,"SKIN AND SUBCUTANEOUS TISSUE DISORDERS","ACTINIC KERATOSIS","ACTINIC KERATOSIS","MILD","N",174,
"01-701-1153","Placebo",1,"METABOLISM AND NUTRITION DISORDERS","INCREASED APPETITE","INCREASED APPETITE","MILD","N",21,45
"01-701-1153","Placebo",2,"METABOLISM AND NUTRITION DISORDERS","INCREASED APPETITE","INCREASED APPETITE","MILD","N",21,45
"01-701-1180","Xanomeline High Dose",7,"GENERAL DISORDERS AND ADMINISTRATION SITE CONDITIONS","APPLICATION SITE VESICLES","APPLICATION SITE VESICLES","MODERATE","N",36,
"01-701-1180","Xanomeline High Dose",8,"GENERAL DISORDERS AND ADMINISTRATION SITE CONDITIONS","APPLICATION SITE PRURITUS","APPLICATION SITE PRURITUS","MODERATE","N",36,
"01-701-1180","Xanomeline High Dose",9,"GENERAL DISORDERS AND ADMINISTRATION SITE CONDITIONS","APPLICATION SITE ERYTHEMA","APPLICATION SITE ERYTHEMA","MODERATE","N",36,
"01-701-1180","Xanomeline High Dose",1,"GASTROINTESTINAL DISORDERS","VOMITING","VOMITING","MILD","N",1,1
"01-701-1180","Xanomeline High Dose",2,"GASTROINTESTINAL DISORDERS","VOMITING","VOMITING","MILD","N",1,1
"01-701-1180","Xanomeline High Dose",3,"RENAL AND URINARY DISORDERS","MICTURITION URGENCY","MICTURITION URGENCY","MILD","N",4,36
"01-701-1180","Xanomeline High Dose",6,"RENAL AND URINARY DISORDERS","MICTURITION URGENCY","MICTURITION URGENCY","MILD","N",4,36
"01-701-1180","Xanomeline High Dose",5,"INFECTIONS AND INFESTATIONS","NASOPHARYNGITIS","NASOPHARYNGITIS","MILD","N",23,24
"01-701-1181","Xanomeline High Dose",1,"PSYCHIATRIC DISORDERS","AGITATION","AGITATION","MODERATE","N",5,5
"01-701-1188","Xanomeline Low Dose",3,"SKIN AND SUBCUTANEOUS TISSUE DISORDERS","ERYTHEMA","ERYTHEMA","MODERATE","N",2,
"01-701-1188","Xanomeline Low Dose",4,"SKIN AND SUBCUTANEOUS TISSUE DISORDERS","PRURITUS","PRURITUS","MODERATE","N",2,
"01-701-1188","Xanomeline Low Dose",6,"SKIN AND SUBCUTANEOUS TISSUE DISORDERS","URTICARIA","URTICARIA","MODERATE","N",18,
"01-701-1188","Xanomeline Low Dose",1,"SKIN AND SUBCUTANEOUS TISSUE DISORDERS","ERYTHEMA","ERYTHEMA","MILD","N",2,
"01-701-1188","Xanomeline Low Dose",2,"SKIN AND SUBCUTANEOUS TISSUE DISORDERS","PRURITUS","PRURITUS","MILD","N",2,
"01-701-1188","Xanomeline Low Dose",5,"SKIN AND SUBCUTANEOUS TISSUE DISORDERS","URTICARIA","URTICARIA","MILD","N",18,
"01-701-1188","Xanomeline Low Dose",7,"GENERAL DISORDERS AND ADMINISTRATION SITE CONDITIONS","APPLICATION SITE URTICARIA","APPLICATION SITE URTICARIA","MILD","N",35,
"01-701-1188","Xanomeline Low Dose",8,"SKIN AND SUBCUTANEOUS TISSUE DISORDERS","URTICARIA","URTICARIA","MILD","N",35,
"01-701-1192","Xanomeline Low Dose",7,"INFECTIONS AND INFESTATIONS","PNEUMONIA","PNEUMONIA","MODERATE","N",48,77
"01-701-1192","Xanomeline Low Dose",8,"MUSCULOSKELETAL AND CONNECTIVE TISSUE DISORDERS","MUSCULAR WEAKNESS","MUSCULAR WEAKNESS","MODERATE","N",48,71
"01-701-1192","Xanomeline Low Dose",10,"INFECTIONS AND INFESTATIONS","PNEUMONIA","PNEUMONIA","MODERATE","N",48,77
"01-701-1192","Xanomeline Low Dose",11,"MUSCULOSKELETAL AND CONNECTIVE TISSUE DISORDERS","MUSCULAR WEAKNESS","MUSCULAR WEAKNESS","MODERATE","N",48,71
"01-701-1192","Xanomeline Low Dose",1,"INVESTIGATIONS","NASAL MUCOSA BIOPSY","NASAL MUCOSA BIOPSY","MILD","N",13,13
"01-701-1192","Xanomeline Low Dose",2,"GENERAL DISORDERS AND ADMINISTRATION SITE CONDITIONS","SECRETION DISCHARGE","SECRETION DISCHARGE","MILD","N",17,55
"01-701-1192","Xanomeline Low Dose",3,"SKIN AND SUBCUTANEOUS TISSUE DISORDERS","ERYTHEMA","ERYTHEMA","MILD","N",17,55
"01-701-1192","Xanomeline Low Dose",5,"GENERAL DISORDERS AND ADMINISTRATION SITE CONDITIONS","SECRETION DISCHARGE","SECRETION DISCHARGE","MILD","N",17,55
"01-701-1192","Xanomeline Low Dose",6,"SKIN AND SUBCUTANEOUS TISSUE DISORDERS","ERYTHEMA","ERYTHEMA","MILD","N",17,55
"01-701-1192","Xanomeline Low Dose",12,"GENERAL DISORDERS AND ADMINISTRATION SITE CONDITIONS","APPLICATION SITE IRRITATION","APPLICATION SITE IRRITATION","MILD","N",137,148
"01-701-1192","Xanomeline Low Dose",13,"GENERAL DISORDERS AND ADMINISTRATION SITE CONDITIONS","APPLICATION SITE ERYTHEMA","APPLICATION SITE ERYTHEMA","MILD","N",137,
"01-701-1192","Xanomeline Low Dose",14,"GENERAL DISORDERS AND ADMINISTRATION SITE CONDITIONS","APPLICATION SITE PRURITUS","APPLICATION SITE PRURITUS","MILD","N",137,
"01-701-1192","Xanomeline Low Dose",15,"GENERAL DISORDERS AND ADMINISTRATION SITE CONDITIONS","APPLICATION SITE IRRITATION","APPLICATION SITE IRRITATION","MILD","N",137,148
"01-701-1203","Placebo",1,"SURGICAL AND MEDICAL PROCEDURES","EYE LASER SURGERY","EYE LASER SURGERY","MILD","N",48,48
"01-701-1211","Xanomeline Low Dose",9,"GENERAL DISORDERS AND ADMINISTRATION SITE CONDITIONS","SUDDEN DEATH","SUDDEN DEATH","SEVERE","N",61,61
"01-701-1211","Xanomeline Low Dose",2,"INJURY, POISONING AND PROCEDURAL COMPLICATIONS","JOINT DISLOCATION","JOINT DISLOCATION","MODERATE","N",7,7
"01-701-1211","Xanomeline Low Dose",7,"PSYCHIATRIC DISORDERS","CONFUSIONAL STATE","CONFUSIONAL STATE","MODERATE","N",58,
"01-701-1211","Xanomeline Low Dose",8,"RESPIRATORY, THORACIC AND MEDIASTINAL DISORDERS","DYSPNOEA","DYSPNOEA","MODERATE","N",58,
"01-701-1211","Xanomeline Low Dose",1,"GENERAL DISORDERS AND ADMINISTRATION SITE CONDITIONS","APPLICATION SITE PRURITUS","APPLICATION SITE PRURITUS","MILD","N",2,
"01-701-1211","Xanomeline Low Dose",3,"MUSCULOSKELETAL AND CONNECTIVE TISSUE DISORDERS","SHOULDER PAIN","SHOULDER PAIN","MILD","N",7,
"01-701-1211","Xanomeline Low Dose",4,"RENAL AND URINARY DISORDERS","INCONTINENCE","INCONTINENCE","MILD","N",8,
"01-701-1211","Xanomeline Low Dose",5,"GENERAL DISORDERS AND ADMINISTRATION SITE CONDITIONS","APPLICATION SITE ERYTHEMA","APPLICATION SITE ERYTHEMA","MILD","N",15,
"01-701-1211","Xanomeline Low Dose",6,"INJURY, POISONING AND PROCEDURAL COMPLICATIONS","SKIN LACERATION","SKIN LACERATION","MILD","N",25,
"01-701-1239","Xanomeline High Dose",6,"SKIN AND SUBCUTANEOUS TISSUE DISORDERS","ERYTHEMA","ERYTHEMA","MODERATE","N",2,
"01-701-1239","Xanomeline High Dose",1,"SKIN AND SUBCUTANEOUS TISSUE DISORDERS","ERYTHEMA","ERYTHEMA","MILD","N",2,
"01-701-1239","Xanomeline High Dose",2,"SKIN AND SUBCUTANEOUS TISSUE DISORDERS","SKIN ODOUR ABNORMAL","SKIN ODOUR ABNORMAL","MILD","N",2,
"01-701-1239","Xanomeline High Dose",3,"SKIN AND SUBCUTANEOUS TISSUE DISORDERS","PRURITUS","PRURITUS","MILD","N",3,
"01-701-1239","Xanomeline High Dose",4,"GENERAL DISORDERS AND ADMINISTRATION SITE CONDITIONS","APPLICATION SITE IRRITATION","APPLICATION SITE IRRITATION","MILD","N",10,29
"01-701-1239","Xanomeline High Dose",5,"GENERAL DISORDERS AND ADMINISTRATION SITE CONDITIONS","APPLICATION SITE IRRITATION","APPLICATION SITE IRRITATION","MILD","N",10,29
"01-701-1239","Xanomeline High Dose",7,"INFECTIONS AND INFESTATIONS","UPPER RESPIRATORY TRACT INFECTION","UPPER RESPIRATORY TRACT INFECTION","MILD","N",41,61
"01-701-1239","Xanomeline High Dose",8,"INFECTIONS AND INFESTATIONS","UPPER RESPIRATORY TRACT INFECTION","UPPER RESPIRATORY TRACT INFECTION","MILD","N",41,61
"01-701-1239","Xanomeline High Dose",9,"GENERAL DISORDERS AND ADMINISTRATION SITE CONDITIONS","FATIGUE","FATIGUE","MILD","N",50,
"01-701-1239","Xanomeline High Dose",10,"INFECTIONS AND INFESTATIONS","HORDEOLUM","HORDEOLUM","MILD","N",81,
"01-701-1275","Xanomeline High Dose",1,"GASTROINTESTINAL DISORDERS","NAUSEA","NAUSEA","MILD","N",7,117
"01-701-1275","Xanomeline High Dose",11,"GASTROINTESTINAL DISORDERS","NAUSEA","NAUSEA","MILD","N",7,117
"01-701-1275","Xanomeline High Dose",2,"GASTROINTESTINAL DISORDERS","VOMITING","VOMITING","MILD","N",17,17
"01-701-1275","Xanomeline High Dose",3,"SKIN AND SUBCUTANEOUS TISSUE DISORDERS","ERYTHEMA","ERYTHEMA","MILD","N",18,126
"01-701-1275","Xanomeline High Dose",4,"GASTROINTESTINAL DISORDERS","SALIVARY HYPERSECRETION","SALIVARY HYPERSECRETION","MILD","N",18,117
"01-701-1275","Xanomeline High Dose",5,"NERVOUS SYSTEM DISORDERS","PAROSMIA","PAROSMIA","MILD","N",18,117
"01-701-1275","Xanomeline High Dose",6,"SKIN AND SUBCUTANEOUS TISSUE DISORDERS","PRURITUS","PRURITUS","MILD","N",18,126
"01-701-1275","Xanomeline High Dose",12,"SKIN AND SUBCUTANEOUS TISSUE DISORDERS","ERYTHEMA","ERYTHEMA","MILD","N",18,126
"01-701-1275","Xanomeline High Dose",13,"GASTROINTESTINAL DISORDERS","SALIVARY HYPERSECRETION","SALIVARY HYPERSECRETION","MILD","N",18,117
"01-701-1275","Xanomeline High Dose",14,"NERVOUS SYSTEM DISORDERS","PAROSMIA","PAROSMIA","MILD","N",18,117
"01-701-1275","Xanomeline High Dose",15,"SKIN AND SUBCUTANEOUS TISSUE DISORDERS","PRURITUS","PRURITUS","MILD","N",18,126
"01-701-1275","Xanomeline High Dose",7,"RESPIRATORY, THORACIC AND MEDIASTINAL DISORDERS","COUGH","COUGH","MILD","N",34,49
"01-701-1275","Xanomeline High Dose",8,"RESPIRATORY, THORACIC AND MEDIASTINAL DISORDERS","NASAL CONGESTION","NASAL CONGESTION","MILD","N",34,49
"01-701-1275","Xanomeline High Dose",9,"RESPIRATORY, THORACIC AND MEDIASTINAL DISORDERS","COUGH","COUGH","MILD","N",34,49
"01-701-1275","Xanomeline High Dose",10,"RESPIRATORY, THORACIC AND MEDIASTINAL DISORDERS","NASAL CONGESTION","NASAL CONGESTION","MILD","N",34,49
"01-701-1287","Xanomeline High Dose",1,"GASTROINTESTINAL DISORDERS","SALIVARY HYPERSECRETION","SALIVARY HYPERSECRETION","MILD","N",2,
"01-701-1287","Xanomeline High Dose",2,"GENERAL DISORDERS AND ADMINISTRATION SITE CONDITIONS","APPLICATION SITE PRURITUS","APPLICATION SITE PRURITUS","MILD","N",29,
"01-701-1287","Xanomeline High Dose",3,"GENERAL DISORDERS AND ADMINISTRATION SITE CONDITIONS","APPLICATION SITE ERYTHEMA","APPLICATION SITE ERYTHEMA","MILD","N",44,
"01-701-1287","Xanomeline High Dose",4,"RESPIRATORY, THORACIC AND MEDIASTINAL DISORDERS","RHINORRHOEA","RHINORRHOEA","MILD","N",166,169
"01-701-1287","Xanomeline High Dose",5,"RESPIRATORY, THORACIC AND MEDIASTINAL DISORDERS","RHINORRHOEA","RHINORRHOEA","MILD","N",166,169
"01-701-1294","Xanomeline Low Dose",4,"GENERAL DISORDERS AND ADMINISTRATION SITE CONDITIONS","APPLICATION SITE PRURITUS","APPLICATION SITE PRURITUS","MODERATE","N",57,
"01-701-1294","Xanomeline Low Dose",5,"GENERAL DISORDERS AND ADMINISTRATION SITE CONDITIONS","APPLICATION SITE ERYTHEMA","APPLICATION SITE ERYTHEMA","MODERATE","N",57,
"01-701-1294","Xanomeline Low Dose",6,"SKIN AND SUBCUTANEOUS TISSUE DISORDERS","RASH ERYTHEMATOUS","RASH ERYTHEMATOUS","MODERATE","N",79,
"01-701-1294","Xanomeline Low Dose",2,"GENERAL DISORDERS AND ADMINISTRATION SITE CONDITIONS","APPLICATION SITE PRURITUS","APPLICATION SITE PRURITUS","MILD","N",57,
"01-701-1294","Xanomeline Low Dose",3,"GENERAL DISORDERS AND ADMINISTRATION SITE CONDITIONS","APPLICATION SITE ERYTHEMA","APPLICATION SITE ERYTHEMA","MILD","N",57,
"01-701-1302","Xanomeline High Dose",9,"NERVOUS SYSTEM DISORDERS","DIZZINESS","DIZZINESS","MODERATE","N",5,6
"01-701-1302","Xanomeline High Dose",18,"GENERAL DISORDERS AND ADMINISTRATION SITE CONDITIONS","MALAISE","MALAISE","MODERATE","N",5,
"01-701-1302","Xanomeline High Dose",1,"GENERAL DISORDERS AND ADMINISTRATION SITE CONDITIONS","APPLICATION SITE PERSPIRATION","APPLICATION SITE PERSPIRATION","MILD","N",2,
"01-701-1302","Xanomeline High Dose",2,"SKIN AND SUBCUTANEOUS TISSUE DISORDERS","HYPERHIDROSIS","HYPERHIDROSIS","MILD","N",2,
"01-701-1302","Xanomeline High Dose",3,"GASTROINTESTINAL DISORDERS","STOMACH DISCOMFORT","STOMACH DISCOMFORT","MILD","N",2,
"01-701-1302","Xanomeline High Dose",4,"GENERAL DISORDERS AND ADMINISTRATION SITE CONDITIONS","PAIN","PAIN","MILD","N",3,
"01-701-1302","Xanomeline High Dose",5,"RESPIRATORY, THORACIC AND MEDIASTINAL DISORDERS","NASAL CONGESTION","NASAL CONGESTION","MILD","N",4,
"01-701-1302","Xanomeline High Dose",6,"RESPIRATORY, THORACIC AND MEDIASTINAL DISORDERS","PHARYNGOLARYNGEAL PAIN","PHARYNGOLARYNGEAL PAIN","MILD","N",5,
"01-701-1302","Xanomeline High Dose",7,"RESPIRATORY, THORACIC AND MEDIASTINAL DISORDERS","PRODUCTIVE COUGH","PRODUCTIVE COUGH","MILD","N",5,
"01-701-1302","Xanomeline High Dose",8,"GENERAL DISORDERS AND ADMINISTRATION SITE CONDITIONS","MALAISE","MALAISE","MILD","N",5,
"01-701-1302","Xanomeline High Dose",10,"MUSCULOSKELETAL AND CONNECTIVE TISSUE DISORDERS","MYALGIA","MYALGIA","MILD","N",5,
"01-701-1302","Xanomeline High Dose",11,"NERVOUS SYSTEM DISORDERS","DIZZINESS","DIZZINESS","MILD","N",7,
"01-701-1302","Xanomeline High Dose",12,"INJURY, POISONING AND PROCEDURAL COMPLICATIONS","CONTUSION","CONTUSION","MILD","N",8,41
"01-701-1302","Xanomeline High Dose",15,"INJURY, POISONING AND PROCEDURAL COMPLICATIONS","CONTUSION","CONTUSION","MILD","N",8,41
"01-701-1302","Xanomeline High Dose",13,"NERVOUS SYSTEM DISORDERS","HEADACHE","HEADACHE","MILD","N",18,
"01-701-1302","Xanomeline High Dose",14,"RESPIRATORY, THORACIC AND MEDIASTINAL DISORDERS","EPISTAXIS","EPISTAXIS","MILD","N",33,
"01-701-1302","Xanomeline High Dose",16,"GENERAL DISORDERS AND ADMINISTRATION SITE CONDITIONS","APPLICATION SITE ERYTHEMA","APPLICATION SITE ERYTHEMA","MILD","N",48,
"01-701-1302","Xanomeline High Dose",17,"GENERAL DISORDERS AND ADMINISTRATION SITE CONDITIONS","APPLICATION SITE PRURITUS","APPLICATION SITE PRURITUS","MILD","N",48,
"01-701-1302","Xanomeline High Dose",19,"RESPIRATORY, THORACIC AND MEDIASTINAL DISORDERS","RESPIRATORY TRACT CONGESTION","RESPIRATORY TRACT CONGESTION","MILD","N",56,
"01-701-1302","Xanomeline High Dose",20,"INFECTIONS AND INFESTATIONS","RHINITIS","RHINITIS","MILD","N",56,
"01-701-1302","Xanomeline High Dose",21,"GENERAL DISORDERS AND ADMINISTRATION SITE CONDITIONS","FEELING ABNORMAL","FEELING ABNORMAL","MILD","N",57,
"01-701-1302","Xanomeline High Dose",22,"PSYCHIATRIC DISORDERS","LISTLESS","LISTLESS","MILD","N",57,
"01-701-1302","Xanomeline High Dose",23,"PSYCHIATRIC DISORDERS","LIBIDO DECREASED","LIBIDO DECREASED","MILD","N",57,
"01-701-1317","Xanomeline Low Dose",7,"PSYCHIATRIC DISORDERS","DEPRESSED MOOD","DEPRESSED MOOD","MODERATE","N",44,
"01-701-1317","Xanomeline Low Dose",3,"GENERAL DISORDERS AND ADMINISTRATION SITE CONDITIONS","APPLICATION SITE ERYTHEMA","APPLICATION SITE ERYTHEMA","MILD","N",33,
"01-701-1317","Xanomeline Low Dose",4,"GENERAL DISORDERS AND ADMINISTRATION SITE CONDITIONS","APPLICATION SITE PRURITUS","APPLICATION SITE PRURITUS","MILD","N",33,
"01-701-1317","Xanomeline Low Dose",5,"GENERAL DISORDERS AND ADMINISTRATION SITE CONDITIONS","APPLICATION SITE URTICARIA","APPLICATION SITE URTICARIA","MILD","N",33,
"01-701-1317","Xanomeline Low Dose",6,"PSYCHIATRIC DISORDERS","DEPRESSED MOOD","DEPRESSED MOOD","MILD","N",44,
"01-701-1317","Xanomeline Low Dose",8,"GENERAL DISORDERS AND ADMINISTRATION SITE CONDITIONS","FATIGUE","FATIGUE","MILD","N",114,
"01-701-1317","Xanomeline Low Dose",9,"RESPIRATORY, THORACIC AND MEDIASTINAL DISORDERS","DYSPHONIA","DYSPHONIA","MILD","N",166,
"01-701-1324","Xanomeline Low Dose",1,"GENERAL DISORDERS AND ADMINISTRATION SITE CONDITIONS","APPLICATION SITE ERYTHEMA","APPLICATION SITE ERYTHEMA","MILD","N",21,
"01-701-1324","Xanomeline Low Dose",2,"GENERAL DISORDERS AND ADMINISTRATION SITE CONDITIONS","APPLICATION SITE PRURITUS","APPLICATION SITE PRURITUS","MILD","N",62,
"01-701-1324","Xanomeline Low Dose",3,"GENERAL DISORDERS AND ADMINISTRATION SITE CONDITIONS","APPLICATION SITE VESICLES","APPLICATION SITE VESICLES","MILD","N",85,107
"01-701-1324","Xanomeline Low Dose",4,"GENERAL DISORDERS AND ADMINISTRATION SITE CONDITIONS","APPLICATION SITE VESICLES","APPLICATION SITE VESICLES","MILD","N",85,107
"01-701-1341","Xanomeline Low Dose",1,"GENERAL DISORDERS AND ADMINISTRATION SITE CONDITIONS","APPLICATION SITE PRURITUS","APPLICATION SITE PRURITUS","MODERATE","N",15,
"01-701-1341","Xanomeline Low Dose",2,"GENERAL DISORDERS AND ADMINISTRATION SITE CONDITIONS","APPLICATION SITE ERYTHEMA","APPLICATION SITE ERYTHEMA","MODERATE","N",15,
"01-701-1341","Xanomeline Low Dose",3,"GENERAL DISORDERS AND ADMINISTRATION SITE CONDITIONS","APPLICATION SITE PRURITUS","APPLICATION SITE PRURITUS","MODERATE","N",22,26
"01-701-1341","Xanomeline Low Dose",4,"GENERAL DISORDERS AND ADMINISTRATION SITE CONDITIONS","APPLICATION SITE ERYTHEMA","APPLICATION SITE ERYTHEMA","MODERATE","N",22,
"01-701-1341","Xanomeline Low Dose",5,"GENERAL DISORDERS AND ADMINISTRATION SITE CONDITIONS","APPLICATION SITE IRRITATION","APPLICATION SITE IRRITATION","MODERATE","N",22,26
"01-701-1360","Xanomeline High Dose",1,"GENERAL DISORDERS AND ADMINISTRATION SITE CONDITIONS","APPLICATION SITE ERYTHEMA","APPLICATION SITE ERYTHEMA","MODERATE","N",3,
"01-701-1360","Xanomeline High Dose",2,"GENERAL DISORDERS AND ADMINISTRATION SITE CONDITIONS","APPLICATION SITE PRURITUS","APPLICATION SITE PRURITUS","MODERATE","N",3,
"01-701-1360","Xanomeline High Dose",3,"GENERAL DISORDERS AND ADMINISTRATION SITE CONDITIONS","APPLICATION SITE VESICLES","APPLICATION SITE VESICLES","MODERATE","N",6,
"01-701-1363","Placebo",1,"GASTROINTESTINAL DISORDERS","NAUSEA","NAUSEA","MILD","N",16,17
"01-701-1363","Placebo",3,"GENERAL DISORDERS AND ADMINISTRATION SITE CONDITIONS","APPLICATION SITE PRURITUS","APPLICATION SITE PRURITUS","MILD","N",48,
"01-701-1363","Placebo",5,"MUSCULOSKELETAL AND CONNECTIVE TISSUE DISORDERS","BACK PAIN","BACK PAIN","MILD","N",137,139
"01-701-1363","Placebo",6,"MUSCULOSKELETAL AND CONNECTIVE TISSUE DISORDERS","BACK PAIN","BACK PAIN","MILD","N",137,139
"01-701-1383","Xanomeline High Dose",7,"GENERAL DISORDERS AND ADMINISTRATION SITE CONDITIONS","APPLICATION SITE PRURITUS","APPLICATION SITE PRURITUS","MODERATE","N",48,
"01-701-1383","Xanomeline High Dose",8,"GENERAL DISORDERS AND ADMINISTRATION SITE CONDITIONS","APPLICATION SITE IRRITATION","APPLICATION SITE IRRITATION","MODERATE","N",68,
"01-701-1383","Xanomeline High Dose",12,"RESPIRATORY, THORACIC AND MEDIASTINAL DISORDERS","COUGH","COUGH","MODERATE","N",164,173
"01-701-1383","Xanomeline High Dose",1,"GENERAL DISORDERS AND ADMINISTRATION SITE CONDITIONS","APPLICATION SITE PRURITUS","APPLICATION SITE PRURITUS","MILD","N",4,4
"01-701-1383","Xanomeline High Dose",2,"GENERAL DISORDERS AND ADMINISTRATION SITE CONDITIONS","APPLICATION SITE PAIN","APPLICATION SITE PAIN","MILD","N",4,4
"01-701-1383","Xanomeline High Dose",3,"GENERAL DISORDERS AND ADMINISTRATION SITE CONDITIONS","APPLICATION SITE ERYTHEMA","APPLICATION SITE ERYTHEMA","MILD","N",48,51
"01-701-1383","Xanomeline High Dose",4,"GENERAL DISORDERS AND ADMINISTRATION SITE CONDITIONS","APPLICATION SITE PRURITUS","APPLICATION SITE PRURITUS","MILD","N",48,
"01-701-1383","Xanomeline High Dose",5,"GENERAL DISORDERS AND ADMINISTRATION SITE CONDITIONS","APPLICATION SITE ERYTHEMA","APPLICATION SITE ERYTHEMA","MILD","N",68,
"01-701-1383","Xanomeline High Dose",6,"GENERAL DISORDERS AND ADMINISTRATION SITE CONDITIONS","APPLICATION SITE IRRITATION","APPLICATION SITE IRRITATION","MILD","N",68,
"01-701-1383","Xanomeline High Dose",9,"GENERAL DISORDERS AND ADMINISTRATION SITE CONDITIONS","APPLICATION SITE VESICLES","APPLICATION SITE VESICLES","MILD","N",93,110
"01-701-1383","Xanomeline High Dose",10,"GENERAL DISORDERS AND ADMINISTRATION SITE CONDITIONS","CHEST DISCOMFORT","CHEST DISCOMFORT","MILD","N",141,141
"01-701-1383","Xanomeline High Dose",11,"NERVOUS SYSTEM DISORDERS","HEADACHE","HEADACHE","MILD","N",141,141
"01-701-1387","Placebo",1,"GASTROINTESTINAL DISORDERS","DIARRHOEA","DIARRHOEA","MILD","N",7,7
"01-701-1387","Placebo",2,"SKIN AND SUBCUTANEOUS TISSUE DISORDERS","HYPERHIDROSIS","HYPERHIDROSIS","MILD","N",7,7
"01-701-1392","Placebo",1,"INFECTIONS AND INFESTATIONS","UPPER RESPIRATORY TRACT INFECTION","UPPER RESPIRATORY TRACT INFECTION","MILD","N",140,145
"01-701-1392","Placebo",2,"INFECTIONS AND INFESTATIONS","UPPER RESPIRATORY TRACT INFECTION","UPPER RESPIRATORY TRACT INFECTION","MILD","N",140,145
"01-701-1415","Placebo",1,"INFECTIONS AND INFESTATIONS","UPPER RESPIRATORY TRACT INFECTION","UPPER RESPIRATORY TRACT INFECTION","MILD","N",29,43
"01-701-1415","Placebo",2,"INFECTIONS AND INFESTATIONS","UPPER RESPIRATORY TRACT INFECTION","UPPER RESPIRATORY TRACT INFECTION","MILD","N",29,43
"01-701-1415","Placebo",3,"RENAL AND URINARY DISORDERS","MICTURITION URGENCY","MICTURITION URGENCY","MILD","N",71,
"01-701-1415","Placebo",4,"INFECTIONS AND INFESTATIONS","UPPER RESPIRATORY TRACT INFECTION","UPPER RESPIRATORY TRACT INFECTION","MILD","N",121,141
"01-701-1415","Placebo",5,"INFECTIONS AND INFESTATIONS","UPPER RESPIRATORY TRACT INFECTION","UPPER RESPIRATORY TRACT INFECTION","MILD","N",121,141
"01-701-1415","Placebo",6,"GASTROINTESTINAL DISORDERS","DIARRHOEA","DIARRHOEA","MILD","N",168,168
"01-701-1442","Xanomeline Low Dose",1,"GENERAL DISORDERS AND ADMINISTRATION SITE CONDITIONS","APPLICATION SITE PRURITUS","APPLICATION SITE PRURITUS","MILD","N",77,
"01-701-1444","Xanomeline High Dose",4,"GENERAL DISORDERS AND ADMINISTRATION SITE CONDITIONS","APPLICATION SITE ERYTHEMA","APPLICATION SITE ERYTHEMA","MODERATE","N",15,
"01-701-1444","Xanomeline High Dose",5,"GENERAL DISORDERS AND ADMINISTRATION SITE CONDITIONS","APPLICATION SITE PRURITUS","APPLICATION SITE PRURITUS","MODERATE","N",15,
"01-701-1444","Xanomeline High Dose",6,"GENERAL DISORDERS AND ADMINISTRATION SITE CONDITIONS","APPLICATION SITE IRRITATION","APPLICATION SITE IRRITATION","MODERATE","N",31,
"01-701-1444","Xanomeline High Dose",7,"GENERAL DISORDERS AND ADMINISTRATION SITE CONDITIONS","APPLICATION SITE VESICLES","APPLICATION SITE VESICLES","MODERATE","N",31,
"01-701-1444","Xanomeline High Dose",1,"GENERAL DISORDERS AND ADMINISTRATION SITE CONDITIONS","APPLICATION SITE ERYTHEMA","APPLICATION SITE ERYTHEMA","MILD","N",15,
"01-701-1444","Xanomeline High Dose",2,"GENERAL DISORDERS AND ADMINISTRATION SITE CONDITIONS","APPLICATION SITE PRURITUS","APPLICATION SITE PRURITUS","MILD","N",15,
"01-701-1444","Xanomeline High Dose",3,"GASTROINTESTINAL DISORDERS","SALIVARY HYPERSECRETION","SALIVARY HYPERSECRETION","MILD","N",15,
"01-701-1444","Xanomeline High Dose",8,"NERVOUS SYSTEM DISORDERS","PARAESTHESIA","PARAESTHESIA","MILD","N",35,35
"01-702-1082","Xanomeline Low Dose",10,"SKIN AND SUBCUTANEOUS TISSUE DISORDERS","SKIN IRRITATION","SKIN IRRITATION","MODERATE","N",79,98
"01-702-1082","Xanomeline Low Dose",7,"GASTROINTESTINAL DISORDERS","RECTAL HAEMORRHAGE","RECTAL HAEMORRHAGE","MILD","N",39,43
"01-702-1082","Xanomeline Low Dose",8,"GASTROINTESTINAL DISORDERS","RECTAL HAEMORRHAGE","RECTAL HAEMORRHAGE","MILD","N",39,43
"01-702-1082","Xanomeline Low Dose",9,"GENERAL DISORDERS AND ADMINISTRATION SITE CONDITIONS","APPLICATION SITE IRRITATION","APPLICATION SITE IRRITATION","MILD","N",46,61
"01-703-1042","Placebo",1,"GASTROINTESTINAL DISORDERS","DIARRHOEA","DIARRHOEA","MILD","N",3,4
"01-703-1042","Placebo",2,"PSYCHIATRIC DISORDERS","INSOMNIA","INSOMNIA","MILD","N",4,5
"01-703-1076","Xanomeline High Dose",1,"INVESTIGATIONS","BIOPSY PROSTATE","BIOPSY PROSTATE","MODERATE","N",23,23
"01-703-1076","Xanomeline High Dose",2,"REPRODUCTIVE SYSTEM AND BREAST DISORDERS","BENIGN PROSTATIC HYPERPLASIA","BENIGN PROSTATIC HYPERPLASIA","MODERATE","N",27,
"01-703-1076","Xanomeline High Dose",7,"GENERAL DISORDERS AND ADMINISTRATION SITE CONDITIONS","APPLICATION SITE PRURITUS","APPLICATION SITE PRURITUS","MODERATE","N",30,
"01-703-1076","Xanomeline High Dose",4,"GENERAL DISORDERS AND ADMINISTRATION SITE CONDITIONS","APPLICATION SITE PRURITUS","APPLICATION SITE PRURITUS","MILD","N",30,
"01-703-1076","Xanomeline High Dose",5,"GENERAL DISORDERS AND ADMINISTRATION SITE CONDITIONS","APPLICATION SITE DERMATITIS","APPLICATION SITE DERMATITIS","MILD","N",30,
"01-703-1076","Xanomeline High Dose",6,"SKIN AND SUBCUTANEOUS TISSUE DISORDERS","HYPERHIDROSIS","HYPERHIDROSIS","MILD","N",32,
"01-703-1086","Xanomeline Low Dose",3,"GENERAL DISORDERS AND ADMINISTRATION SITE CONDITIONS","APPLICATION SITE IRRITATION","APPLICATION SITE IRRITATION","SEVERE","N",12,123
"01-703-1086","Xanomeline Low Dose",2,"GENERAL DISORDERS AND ADMINISTRATION SITE CONDITIONS","APPLICATION SITE IRRITATION","APPLICATION SITE IRRITATION","MODERATE","N",12,123
"01-703-1086","Xanomeline Low Dose",1,"GENERAL DISORDERS AND ADMINISTRATION SITE CONDITIONS","APPLICATION SITE IRRITATION","APPLICATION SITE IRRITATION","MILD","N",12,123
"01-703-1086","Xanomeline Low Dose",6,"GENERAL DISORDERS AND ADMINISTRATION SITE CONDITIONS","APPLICATION SITE IRRITATION","APPLICATION SITE IRRITATION","MILD","N",12,123
"01-703-1086","Xanomeline Low Dose",4,"GENERAL DISORDERS AND ADMINISTRATION SITE CONDITIONS","CHILLS","CHILLS","MILD","N",38,44
"01-703-1086","Xanomeline Low Dose",5,"GENERAL DISORDERS AND ADMINISTRATION SITE CONDITIONS","CHILLS","CHILLS","MILD","N",38,44
"01-703-1100","Placebo",1,"GENERAL DISORDERS AND ADMINISTRATION SITE CONDITIONS","APPLICATION SITE IRRITATION","APPLICATION SITE IRRITATION","MODERATE","N",24,35
"01-703-1100","Placebo",4,"SURGICAL AND MEDICAL PROCEDURES","CATARACT OPERATION","CATARACT OPERATION","MODERATE","N",44,44
"01-703-1100","Placebo",5,"INFECTIONS AND INFESTATIONS","UPPER RESPIRATORY TRACT INFECTION","UPPER RESPIRATORY TRACT INFECTION","MODERATE","N",76,83
"01-703-1100","Placebo",2,"GENERAL DISORDERS AND ADMINISTRATION SITE CONDITIONS","APPLICATION SITE IRRITATION","APPLICATION SITE IRRITATION","MILD","N",24,35
"01-703-1100","Placebo",3,"GENERAL DISORDERS AND ADMINISTRATION SITE CONDITIONS","APPLICATION SITE IRRITATION","APPLICATION SITE IRRITATION","MILD","N",24,35
"01-703-1100","Placebo",7,"GENERAL DISORDERS AND ADMINISTRATION SITE CONDITIONS","OEDEMA PERIPHERAL","OEDEMA PERIPHERAL","MILD","N",127,186
"01-703-1100","Placebo",9,"GENERAL DISORDERS AND ADMINISTRATION SITE CONDITIONS","OEDEMA PERIPHERAL","OEDEMA PERIPHERAL","MILD","N",127,186
"01-703-1119","Xanomeline Low Dose",2,"GENERAL DISORDERS AND ADMINISTRATION SITE CONDITIONS","APPLICATION SITE IRRITATION","APPLICATION SITE IRRITATION","SEVERE","N",25,
"01-703-1119","Xanomeline Low Dose",4,"SKIN AND SUBCUTANEOUS TISSUE DISORDERS","PRURITUS","PRURITUS","SEVERE","N",74,
"01-703-1119","Xanomeline Low Dose",1,"GENERAL DISORDERS AND ADMINISTRATION SITE CONDITIONS","APPLICATION SITE IRRITATION","APPLICATION SITE IRRITATION","MODERATE","N",25,
"01-703-1119","Xanomeline Low Dose",3,"SKIN AND SUBCUTANEOUS TISSUE DISORDERS","PRURITUS","PRURITUS","MODERATE","N",74,
"01-703-1182","Xanomeline Low Dose",2,"GENERAL DISORDERS AND ADMINISTRATION SITE CONDITIONS","APPLICATION SITE ERYTHEMA","APPLICATION SITE ERYTHEMA","MODERATE","N",15,
"01-703-1182","Xanomeline Low Dose",4,"NERVOUS SYSTEM DISORDERS","SOMNOLENCE","SOMNOLENCE","MODERATE","N",37,
"01-703-1182","Xanomeline Low Dose",1,"GENERAL DISORDERS AND ADMINISTRATION SITE CONDITIONS","APPLICATION SITE ERYTHEMA","APPLICATION SITE ERYTHEMA","MILD","N",15,
"01-703-1182","Xanomeline Low Dose",3,"NERVOUS SYSTEM DISORDERS","SOMNOLENCE","SOMNOLENCE","MILD","N",37,
"01-703-1210","Placebo",3,"METABOLISM AND NUTRITION DISORDERS","DECREASED APPETITE","DECREASED APPETITE","MODERATE","N",50,
"01-703-1210","Placebo",1,"PSYCHIATRIC DISORDERS","DISORIENTATION","DISORIENTATION","MILD","N",18,
"01-703-1210","Placebo",2,"METABOLISM AND NUTRITION DISORDERS","DECREASED APPETITE","DECREASED APPETITE","MILD","N",50,
"01-703-1258","Xanomeline High Dose",6,"GENERAL DISORDERS AND ADMINISTRATION SITE CONDITIONS","APPLICATION SITE DERMATITIS","APPLICATION SITE DERMATITIS","MODERATE","N",47,190
"01-703-1258","Xanomeline High Dose",1,"INFECTIONS AND INFESTATIONS","UPPER RESPIRATORY TRACT INFECTION","UPPER RESPIRATORY TRACT INFECTION","MILD","N",23,31
"01-703-1258","Xanomeline High Dose",3,"INFECTIONS AND INFESTATIONS","UPPER RESPIRATORY TRACT INFECTION","UPPER RESPIRATORY TRACT INFECTION","MILD","N",23,31
"01-703-1258","Xanomeline High Dose",4,"GENERAL DISORDERS AND ADMINISTRATION SITE CONDITIONS","APPLICATION SITE DERMATITIS","APPLICATION SITE DERMATITIS","MILD","N",47,190
"01-703-1258","Xanomeline High Dose",7,"GENERAL DISORDERS AND ADMINISTRATION SITE CONDITIONS","APPLICATION SITE DERMATITIS","APPLICATION SITE DERMATITIS","MILD","N",47,190
"01-703-1295","Xanomeline High Dose",1,"MUSCULOSKELETAL AND CONNECTIVE TISSUE DISORDERS","ARTHRITIS","ARTHRITIS","MODERATE","N",38,
"01-703-1299","Placebo",6,"VASCULAR DISORDERS","HYPOTENSION","HYPOTENSION","MODERATE","N",171,
"01-703-1299","Placebo",7,"CARDIAC DISORDERS","TACHYCARDIA","TACHYCARDIA","MODERATE","N",171,
"01-703-1299","Placebo",8,"CARDIAC DISORDERS","MYOCARDIAL INFARCTION","MYOCARDIAL INFARCTION","MODERATE","N",183,
"01-703-1299","Placebo",1,"INFECTIONS AND INFESTATIONS","UPPER RESPIRATORY TRACT INFECTION","UPPER RESPIRATORY TRACT INFECTION","MILD","N",16,25
"01-703-1299","Placebo",2,"INFECTIONS AND INFESTATIONS","UPPER RESPIRATORY TRACT INFECTION","UPPER RESPIRATORY TRACT INFECTION","MILD","N",16,25
"01-703-1299","Placebo",4,"VASCULAR DISORDERS","HYPOTENSION","HYPOTENSION","MILD","N",171,
"01-703-1299","Placebo",5,"CARDIAC DISORDERS","TACHYCARDIA","TACHYCARDIA","MILD","N",171,
"01-703-1403","Xanomeline High Dose",1,"INVESTIGATIONS","WEIGHT DECREASED","WEIGHT DECREASED","MODERATE","N",1,8
"01-703-1403","Xanomeline High Dose",5,"INVESTIGATIONS","WEIGHT DECREASED","WEIGHT DECREASED","MODERATE","N",1,8
"01-703-1403","Xanomeline High Dose",2,"GASTROINTESTINAL DISORDERS","DIARRHOEA","DIARRHOEA","MODERATE","N",2,3
"01-703-1403","Xanomeline High Dose",3,"GASTROINTESTINAL DISORDERS","VOMITING","VOMITING","MODERATE","N",2,3
"01-703-1403","Xanomeline High Dose",4,"GENERAL DISORDERS AND ADMINISTRATION SITE CONDITIONS","CHEST DISCOMFORT","CHEST DISCOMFORT","MILD","N",4,5
"01-703-1439","Xanomeline High Dose",2,"GENERAL DISORDERS AND ADMINISTRATION SITE CONDITIONS","APPLICATION SITE IRRITATION","APPLICATION SITE IRRITATION","MODERATE","N",44,
"01-703-1439","Xanomeline High Dose",1,"GENERAL DISORDERS AND ADMINISTRATION SITE CONDITIONS","APPLICATION SITE IRRITATION","APPLICATION SITE IRRITATION","MILD","N",44,
"01-704-1008","Xanomeline High Dose",2,"NERVOUS SYSTEM DISORDERS","TRANSIENT ISCHAEMIC ATTACK","TRANSIENT ISCHAEMIC ATTACK","SEVERE","N",40,40
"01-704-1008","Xanomeline High Dose",3,"CARDIAC DISORDERS","SINUS BRADYCARDIA","SINUS BRADYCARDIA","MODERATE","N",44,
"01-704-1008","Xanomeline High Dose",1,"SKIN AND SUBCUTANEOUS TISSUE DISORDERS","HYPERHIDROSIS","HYPERHIDROSIS","MILD","N",18,
"01-704-1009","Xanomeline Low Dose",1,"GENERAL DISORDERS AND ADMINISTRATION SITE CONDITIONS","FATIGUE","FATIGUE","MILD","N",10,
"01-704-1009","Xanomeline Low Dose",2,"GENERAL DISORDERS AND ADMINISTRATION SITE CONDITIONS","MALAISE","MALAISE","MILD","N",10,32
"01-704-1009","Xanomeline Low Dose",4,"GENERAL DISORDERS AND ADMINISTRATION SITE CONDITIONS","MALAISE","MALAISE","MILD","N",10,32
"01-704-1009","Xanomeline Low Dose",3,"SKIN AND SUBCUTANEOUS TISSUE DISORDERS","RASH","RASH","MILD","N",19,
"01-704-1009","Xanomeline Low Dose",5,"NERVOUS SYSTEM DISORDERS","DIZZINESS","DIZZINESS","MILD","N",22,
"01-704-1009","Xanomeline Low Dose",6,"GASTROINTESTINAL DISORDERS","NAUSEA","NAUSEA","MILD","N",27,28
"01-704-1010","Placebo",1,"INFECTIONS AND INFESTATIONS","CYSTITIS","CYSTITIS","MILD","N",7,14
"01-704-1010","Placebo",2,"GASTROINTESTINAL DISORDERS","VOMITING","VOMITING","MILD","N",135,136
"01-704-1010","Placebo",3,"GASTROINTESTINAL DISORDERS","DIARRHOEA","DIARRHOEA","MILD","N",135,136
"01-704-1010","Placebo",4,"INJURY, POISONING AND PROCEDURAL COMPLICATIONS","EXCORIATION","EXCORIATION","MILD","N",136,
"01-704-1010","Placebo",5,"INJURY, POISONING AND PROCEDURAL COMPLICATIONS","SKIN LACERATION","SKIN LACERATION","MILD","N",136,
"01-704-1010","Placebo",6,"MUSCULOSKELETAL AND CONNECTIVE TISSUE DISORDERS","ARTHRALGIA","ARTHRALGIA","MILD","N",136,
"01-704-1010","Placebo",7,"INJURY, POISONING AND PROCEDURAL COMPLICATIONS","CONTUSION","CONTUSION","MILD","N",136,
"01-704-1017","Xanomeline High Dose",1,"CARDIAC DISORDERS","MYOCARDIAL INFARCTION","MYOCARDIAL INFARCTION","MILD","N",14,
"01-704-1017","Xanomeline High Dose",2,"CONGENITAL, FAMILIAL AND GENETIC DISORDERS","VENTRICULAR SEPTAL DEFECT","VENTRICULAR SEPTAL DEFECT","MILD","N",14,
"01-704-1017","Xanomeline High Dose",3,"INFECTIONS AND INFESTATIONS","INFLUENZA","INFLUENZA","MILD","N",27,34
"01-704-1017","Xanomeline High Dose",4,"CARDIAC DISORDERS","CARDIAC DISORDER","CARDIAC DISORDER","MILD","N",27,
"01-704-1017","Xanomeline High Dose",5,"SKIN AND SUBCUTANEOUS TISSUE DISORDERS","RASH","RASH","MILD","N",31,48
"01-704-1017","Xanomeline High Dose",6,"SKIN AND SUBCUTANEOUS TISSUE DISORDERS","PRURITUS","PRURITUS","MILD","N",31,48
"01-704-1017","Xanomeline High Dose",7,"SKIN AND SUBCUTANEOUS TISSUE DISORDERS","RASH","RASH","MILD","N",31,48
"01-704-1017","Xanomeline High Dose",8,"SKIN AND SUBCUTANEOUS TISSUE DISORDERS","PRURITUS","PRURITUS","MILD","N",31,48
"01-704-1025","Xanomeline Low Dose",1,"EAR AND LABYRINTH DISORDERS","VERTIGO","VERTIGO","MODERATE","N",2,4
"01-704-1025","Xanomeline Low Dose",2,"CARDIAC DISORDERS","PALPITATIONS","PALPITATIONS","MODERATE","N",2,4
"01-704-1025","Xanomeline Low Dose",3,"INVESTIGATIONS","ELECTROCARDIOGRAM ST SEGMENT DEPRESSION","ELECTROCARDIOGRAM ST SEGMENT DEPRESSION","MILD","N",15,29
"01-704-1025","Xanomeline Low Dose",5,"INVESTIGATIONS","ELECTROCARDIOGRAM ST SEGMENT DEPRESSION","ELECTROCARDIOGRAM ST SEGMENT DEPRESSION","MILD","N",15,29
"01-704-1025","Xanomeline Low Dose",4,"CARDIAC DISORDERS","WOLFF-PARKINSON-WHITE SYNDROME","WOLFF-PARKINSON-WHITE SYNDROME","MILD","N",29,64
"01-704-1025","Xanomeline Low Dose",6,"CARDIAC DISORDERS","WOLFF-PARKINSON-WHITE SYNDROME","WOLFF-PARKINSON-WHITE SYNDROME","MILD","N",29,64
"01-704-1065","Xanomeline High Dose",3,"GENERAL DISORDERS AND ADMINISTRATION SITE CONDITIONS","APPLICATION SITE PRURITUS","APPLICATION SITE PRURITUS","MODERATE","N",4,
"01-704-1065","Xanomeline High Dose",1,"GASTROINTESTINAL DISORDERS","ABDOMINAL DISCOMFORT","ABDOMINAL DISCOMFORT","MILD","N",3,
"01-704-1065","Xanomeline High Dose",2,"SKIN AND SUBCUTANEOUS TISSUE DISORDERS","RASH","RASH","MILD","N",4,
"01-704-1065","Xanomeline High Dose",4,"GENERAL DISORDERS AND ADMINISTRATION SITE CONDITIONS","APPLICATION SITE IRRITATION","APPLICATION SITE IRRITATION","MILD","N",17,
"01-704-1065","Xanomeline High Dose",5,"GENERAL DISORDERS AND ADMINISTRATION SITE CONDITIONS","MALAISE","MALAISE","MILD","N",17,
"01-704-1065","Xanomeline High Dose",6,"SKIN AND SUBCUTANEOUS TISSUE DISORDERS","HYPERHIDROSIS","HYPERHIDROSIS","MILD","N",17,
"01-704-1065","Xanomeline High Dose",7,"GENERAL DISORDERS AND ADMINISTRATION SITE CONDITIONS","CHILLS","CHILLS","MILD","N",25,25
"01-704-1065","Xanomeline High Dose",8,"NERVOUS SYSTEM DISORDERS","DIZZINESS","DIZZINESS","MILD","N",25,25
"01-704-1065","Xanomeline High Dose",9,"GASTROINTESTINAL DISORDERS","DIARRHOEA","DIARRHOEA","MILD","N",53,53
"01-704-1065","Xanomeline High Dose",10,"CARDIAC DISORDERS","SINUS BRADYCARDIA","SINUS BRADYCARDIA","MILD","N",62,
"01-704-1074","Xanomeline High Dose",1,"SKIN AND SUBCUTANEOUS TISSUE DISORDERS","PRURITUS","PRURITUS","MILD","N",1,
"01-704-1074","Xanomeline High Dose",2,"SKIN AND SUBCUTANEOUS TISSUE DISORDERS","ERYTHEMA","ERYTHEMA","MILD","N",19,
"01-704-1093","Xanomeline High Dose",1,"INVESTIGATIONS","BLOOD GLUCOSE INCREASED","BLOOD GLUCOSE INCREASED","MILD","N",16,30
"01-704-1093","Xanomeline High Dose",2,"INVESTIGATIONS","BLOOD GLUCOSE INCREASED","BLOOD GLUCOSE INCREASED","MILD","N",16,30
"01-704-1093","Xanomeline High Dose",3,"SKIN AND SUBCUTANEOUS TISSUE DISORDERS","RASH","RASH","MILD","N",51,
"01-704-1093","Xanomeline High Dose",4,"SKIN AND SUBCUTANEOUS TISSUE DISORDERS","PRURITUS","PRURITUS","MILD","N",51,
"01-704-1114","Xanomeline Low Dose",1,"SKIN AND SUBCUTANEOUS TISSUE DISORDERS","ERYTHEMA","ERYTHEMA","MILD","N",30,32
"01-704-1114","Xanomeline Low Dose",2,"GENERAL DISORDERS AND ADMINISTRATION SITE CONDITIONS","OEDEMA","OEDEMA","MILD","N",32,
"01-704-1114","Xanomeline Low Dose",3,"SKIN AND SUBCUTANEOUS TISSUE DISORDERS","RASH","RASH","MILD","N",60,
"01-704-1114","Xanomeline Low Dose",4,"SKIN AND SUBCUTANEOUS TISSUE DISORDERS","PRURITUS","PRURITUS","MILD","N",60,
"01-704-1114","Xanomeline Low Dose",5,"INFECTIONS AND INFESTATIONS","INFLUENZA","INFLUENZA","MILD","N",136,142
"01-704-1120","Xanomeline Low Dose",3,"SKIN AND SUBCUTANEOUS TISSUE DISORDERS","RASH","RASH","MODERATE","N",22,
"01-704-1120","Xanomeline Low Dose",5,"SKIN AND SUBCUTANEOUS TISSUE DISORDERS","PRURITUS","PRURITUS","MODERATE","N",57,
"01-704-1120","Xanomeline Low Dose",1,"SKIN AND SUBCUTANEOUS TISSUE DISORDERS","RASH","RASH","MILD","N",22,
"01-704-1120","Xanomeline Low Dose",2,"INFECTIONS AND INFESTATIONS","NASOPHARYNGITIS","NASOPHARYNGITIS","MILD","N",27,64
"01-704-1120","Xanomeline Low Dose",6,"INFECTIONS AND INFESTATIONS","NASOPHARYNGITIS","NASOPHARYNGITIS","MILD","N",27,64
"01-704-1120","Xanomeline Low Dose",4,"SKIN AND SUBCUTANEOUS TISSUE DISORDERS","PRURITUS","PRURITUS","MILD","N",57,
"01-704-1135","Xanomeline Low Dose",2,"SKIN AND SUBCUTANEOUS TISSUE DISORDERS","RASH","RASH","SEVERE","N",39,
"01-704-1135","Xanomeline Low Dose",1,"SKIN AND SUBCUTANEOUS TISSUE DISORDERS","RASH","RASH","MILD","N",39,
"01-704-1164","Placebo",1,"INFECTIONS AND INFESTATIONS","INFLUENZA","INFLUENZA","MILD","N",9,19
"01-704-1164","Placebo",2,"INFECTIONS AND INFESTATIONS","INFLUENZA","INFLUENZA","MILD","N",9,19
"01-704-1164","Placebo",3,"GENERAL DISORDERS AND ADMINISTRATION SITE CONDITIONS","OEDEMA PERIPHERAL","OEDEMA PERIPHERAL","MILD","N",139,148
"01-704-1218","Xanomeline Low Dose",1,"INVESTIGATIONS","BLOOD GLUCOSE INCREASED","BLOOD GLUCOSE INCREASED","MILD","N",42,
"01-704-1241","Xanomeline High Dose",2,"RESPIRATORY, THORACIC AND MEDIASTINAL DISORDERS","DYSPNOEA","DYSPNOEA","MILD","N",35,
"01-704-1266","Xanomeline High Dose",9,"SKIN AND SUBCUTANEOUS TISSUE DISORDERS","ERYTHEMA","ERYTHEMA","MODERATE","N",5,72
"01-704-1266","Xanomeline High Dose",12,"SKIN AND SUBCUTANEOUS TISSUE DISORDERS","ERYTHEMA","ERYTHEMA","MODERATE","N",5,72
"01-704-1266","Xanomeline High Dose",2,"SKIN AND SUBCUTANEOUS TISSUE DISORDERS","ERYTHEMA","ERYTHEMA","MILD","N",5,72
"01-704-1266","Xanomeline High Dose",3,"CARDIAC DISORDERS","ATRIAL FLUTTER","ATRIAL FLUTTER","MILD","N",15,27
"01-704-1266","Xanomeline High Dose",5,"CARDIAC DISORDERS","ATRIAL FLUTTER","ATRIAL FLUTTER","MILD","N",15,27
"01-704-1266","Xanomeline High Dose",4,"CARDIAC DISORDERS","ATRIAL FIBRILLATION","ATRIAL FIBRILLATION","MILD","N",27,55
"01-704-1266","Xanomeline High Dose",13,"CARDIAC DISORDERS","ATRIAL FIBRILLATION","ATRIAL FIBRILLATION","MILD","N",27,55
"01-704-1266","Xanomeline High Dose",6,"SKIN AND SUBCUTANEOUS TISSUE DISORDERS","HYPERHIDROSIS","HYPERHIDROSIS","MILD","N",28,53
"01-704-1266","Xanomeline High Dose",10,"SKIN AND SUBCUTANEOUS TISSUE DISORDERS","HYPERHIDROSIS","HYPERHIDROSIS","MILD","N",28,53
"01-704-1266","Xanomeline High Dose",7,"SKIN AND SUBCUTANEOUS TISSUE DISORDERS","BLISTER","BLISTER","MILD","N",34,63
"01-704-1266","Xanomeline High Dose",8,"SKIN AND SUBCUTANEOUS TISSUE DISORDERS","PRURITUS","PRURITUS","MILD","N",34,72
"01-704-1266","Xanomeline High Dose",14,"SKIN AND SUBCUTANEOUS TISSUE DISORDERS","BLISTER","BLISTER","MILD","N",34,63
"01-704-1266","Xanomeline High Dose",15,"SKIN AND SUBCUTANEOUS TISSUE DISORDERS","PRURITUS","PRURITUS","MILD","N",34,72
"01-704-1266","Xanomeline High Dose",11,"SKIN AND SUBCUTANEOUS TISSUE DISORDERS","ERYTHEMA","ERYTHEMA","MILD","N",55,72
"01-704-1266","Xanomeline High Dose",16,"SKIN AND SUBCUTANEOUS TISSUE DISORDERS","ERYTHEMA","ERYTHEMA","MILD","N",55,72
"01-704-1323","Xanomeline Low Dose",1,"INFECTIONS AND INFESTATIONS","VIRAL INFECTION","VIRAL INFECTION","MILD","N",23,27
"01-704-1323","Xanomeline Low Dose",2,"SKIN AND SUBCUTANEOUS TISSUE DISORDERS","RASH","RASH","MILD","N",28,
"01-704-1323","Xanomeline Low Dose",3,"SKIN AND SUBCUTANEOUS TISSUE DISORDERS","PRURITUS","PRURITUS","MILD","N",28,
"01-704-1323","Xanomeline Low Dose",4,"GENERAL DISORDERS AND ADMINISTRATION SITE CONDITIONS","OEDEMA","OEDEMA","MILD","N",28,
"01-704-1325","Xanomeline Low Dose",1,"SKIN AND SUBCUTANEOUS TISSUE DISORDERS","RASH","RASH","MILD","N",31,
"01-704-1325","Xanomeline Low Dose",2,"SKIN AND SUBCUTANEOUS TISSUE DISORDERS","PRURITUS","PRURITUS","MILD","N",73,
"01-704-1332","Xanomeline High Dose",3,"SKIN AND SUBCUTANEOUS TISSUE DISORDERS","RASH","RASH","MODERATE","N",2,78
"01-704-1332","Xanomeline High Dose",5,"SKIN AND SUBCUTANEOUS TISSUE DISORDERS","RASH","RASH","MODERATE","N",2,78
"01-704-1332","Xanomeline High Dose",1,"SKIN AND SUBCUTANEOUS TISSUE DISORDERS","RASH","RASH","MILD","N",2,78
"01-704-1332","Xanomeline High Dose",2,"SKIN AND SUBCUTANEOUS TISSUE DISORDERS","PRURITUS","PRURITUS","MILD","N",41,78
"01-704-1332","Xanomeline High Dose",6,"SKIN AND SUBCUTANEOUS TISSUE DISORDERS","PRURITUS","PRURITUS","MILD","N",41,78
"01-704-1332","Xanomeline High Dose",4,"NERVOUS SYSTEM DISORDERS","BURNING SENSATION","BURNING SENSATION","MILD","N",57,
"01-704-1351","Placebo",1,"RENAL AND URINARY DISORDERS","POLLAKIURIA","POLLAKIURIA","MILD","N",16,175
"01-704-1351","Placebo",2,"GASTROINTESTINAL DISORDERS","FLATULENCE","FLATULENCE","MILD","N",16,175
"01-704-1351","Placebo",3,"RENAL AND URINARY DISORDERS","POLLAKIURIA","POLLAKIURIA","MILD","N",16,175
"01-704-1351","Placebo",4,"GASTROINTESTINAL DISORDERS","FLATULENCE","FLATULENCE","MILD","N",16,175
"01-704-1435","Placebo",1,"NERVOUS SYSTEM DISORDERS","PARKINSON'S DISEASE","PARKINSON'S DISEASE","MILD","N",51,
"01-704-1445","Placebo",1,"PSYCHIATRIC DISORDERS","COMPLETED SUICIDE","COMPLETED SUICIDE","SEVERE","N",174,174
"01-705-1031","Xanomeline Low Dose",1,"SKIN AND SUBCUTANEOUS TISSUE DISORDERS","RASH","RASH","MILD","N",29,
"01-705-1059","Placebo",1,"SKIN AND SUBCUTANEOUS TISSUE DISORDERS","ERYTHEMA","ERYTHEMA","MODERATE","N",90,
"01-705-1186","Placebo",1,"HEPATOBILIARY DISORDERS","HYPERBILIRUBINAEMIA","HYPERBILIRUBINAEMIA","MODERATE","N",19,
"01-705-1199","Xanomeline Low Dose",1,"GASTROINTESTINAL DISORDERS","DYSPEPSIA","DYSPEPSIA","MODERATE","N",2,14
"01-705-1199","Xanomeline Low Dose",2,"GASTROINTESTINAL DISORDERS","DYSPEPSIA","DYSPEPSIA","MODERATE","N",2,14
"01-705-1280","Xanomeline High Dose",1,"SKIN AND SUBCUTANEOUS TISSUE DISORDERS","PRURITUS","PRURITUS","MILD","N",94,
"01-705-1281","Xanomeline High Dose",2,"INJURY, POISONING AND PROCEDURAL COMPLICATIONS","EXCORIATION","EXCORIATION","MODERATE","N",64,
"01-705-1281","Xanomeline High Dose",3,"SKIN AND SUBCUTANEOUS TISSUE DISORDERS","PRURITUS","PRURITUS","MODERATE","N",64,
"01-705-1281","Xanomeline High Dose",1,"SKIN AND SUBCUTANEOUS TISSUE DISORDERS","PRURITUS","PRURITUS","MILD","N",64,
"01-705-1292","Xanomeline Low Dose",2,"SKIN AND SUBCUTANEOUS TISSUE DISORDERS","ERYTHEMA","ERYTHEMA","MODERATE","N",123,
"01-705-1292","Xanomeline Low Dose",1,"SKIN AND SUBCUTANEOUS TISSUE DISORDERS","PRURITUS","PRURITUS","MILD","N",15,
"01-705-1310","Xanomeline High Dose",1,"SKIN AND SUBCUTANEOUS TISSUE DISORDERS","RASH PRURITIC","RASH PRURITIC","MODERATE","N",13,
"01-705-1310","Xanomeline High Dose",2,"VASCULAR DISORDERS","WOUND HAEMORRHAGE","WOUND HAEMORRHAGE","MODERATE","N",69,
"01-705-1349","Placebo",1,"GASTROINTESTINAL DISORDERS","NAUSEA","NAUSEA","MILD","N",30,30
"01-705-1349","Placebo",2,"GASTROINTESTINAL DISORDERS","VOMITING","VOMITING","MILD","N",33,33
"01-705-1349","Placebo",3,"CARDIAC DISORDERS","VENTRICULAR HYPERTROPHY","VENTRICULAR HYPERTROPHY","MILD","N",169,
"01-705-1349","Placebo",4,"INVESTIGATIONS","ELECTROCARDIOGRAM ST SEGMENT DEPRESSION","ELECTROCARDIOGRAM ST SEGMENT DEPRESSION","MILD","N",169,
"01-705-1393","Xanomeline Low Dose",3,"NEOPLASMS BENIGN, MALIGNANT AND UNSPECIFIED (INCL CYSTS AND POLYPS)","COLON CANCER","COLON CANCER","SEVERE","N",137,140
"01-705-1393","Xanomeline Low Dose",1,"GASTROINTESTINAL DISORDERS","ABDOMINAL PAIN","ABDOMINAL PAIN","MILD","N",13,18
"01-705-1431","Xanomeline Low Dose",2,"PSYCHIATRIC DISORDERS","ANXIETY","ANXIETY","MILD","N",12,14
"01-706-1041","Placebo",4,"PSYCHIATRIC DISORDERS","IRRITABILITY","IRRITABILITY","MODERATE","N",16,211
"01-706-1041","Placebo",8,"PSYCHIATRIC DISORDERS","IRRITABILITY","IRRITABILITY","MODERATE","N",16,211
"01-706-1041","Placebo",2,"GASTROINTESTINAL DISORDERS","DIARRHOEA","DIARRHOEA","MILD","N",8,9
"01-706-1041","Placebo",3,"INJURY, POISONING AND PROCEDURAL COMPLICATIONS","EXCORIATION","EXCORIATION","MILD","N",15,29
"01-706-1041","Placebo",5,"INJURY, POISONING AND PROCEDURAL COMPLICATIONS","EXCORIATION","EXCORIATION","MILD","N",15,29
"01-706-1041","Placebo",6,"SKIN AND SUBCUTANEOUS TISSUE DISORDERS","PRURITUS","PRURITUS","MILD","N",64,211
"01-706-1041","Placebo",9,"SKIN AND SUBCUTANEOUS TISSUE DISORDERS","PRURITUS","PRURITUS","MILD","N",64,211
"01-706-1049","Xanomeline High Dose",2,"NERVOUS SYSTEM DISORDERS","SYNCOPE","SYNCOPE","SEVERE","N",36,36
"01-706-1049","Xanomeline High Dose",1,"NERVOUS SYSTEM DISORDERS","SYNCOPE","SYNCOPE","MODERATE","N",21,21
"01-706-1384","Xanomeline Low Dose",1,"SKIN AND SUBCUTANEOUS TISSUE DISORDERS","ERYTHEMA","ERYTHEMA","MODERATE","N",1,15
"01-706-1384","Xanomeline Low Dose",2,"SKIN AND SUBCUTANEOUS TISSUE DISORDERS","PRURITUS","PRURITUS","MODERATE","N",1,15
"01-706-1384","Xanomeline Low Dose",3,"INJURY, POISONING AND PROCEDURAL COMPLICATIONS","EXCORIATION","EXCORIATION","MODERATE","N",1,15
"01-706-1384","Xanomeline Low Dose",6,"SKIN AND SUBCUTANEOUS TISSUE DISORDERS","ERYTHEMA","ERYTHEMA","MODERATE","N",1,15
"01-706-1384","Xanomeline Low Dose",7,"SKIN AND SUBCUTANEOUS TISSUE DISORDERS","PRURITUS","PRURITUS","MODERATE","N",1,15
"01-706-1384","Xanomeline Low Dose",8,"INJURY, POISONING AND PROCEDURAL COMPLICATIONS","EXCORIATION","EXCORIATION","MODERATE","N",1,15
"01-706-1384","Xanomeline Low Dose",4,"SKIN AND SUBCUTANEOUS TISSUE DISORDERS","ERYTHEMA","ERYTHEMA","MODERATE","N",9,15
"01-706-1384","Xanomeline Low Dose",5,"SKIN AND SUBCUTANEOUS TISSUE DISORDERS","PRURITUS","PRURITUS","MODERATE","N",9,15
"01-706-1384","Xanomeline Low Dose",9,"SKIN AND SUBCUTANEOUS TISSUE DISORDERS","ERYTHEMA","ERYTHEMA","MODERATE","N",9,15
"01-706-1384","Xanomeline Low Dose",10,"SKIN AND SUBCUTANEOUS TISSUE DISORDERS","PRURITUS","PRURITUS","MODERATE","N",9,15
"01-707-1206","Placebo",2,"INVESTIGATIONS","BLOOD CREATINE PHOSPHOKINASE INCREASED","BLOOD CREATINE PHOSPHOKINASE INCREASED","MODERATE","N",30,43
"01-707-1206","Placebo",4,"INVESTIGATIONS","BLOOD CREATINE PHOSPHOKINASE INCREASED","BLOOD CREATINE PHOSPHOKINASE INCREASED","MODERATE","N",30,43
"01-707-1206","Placebo",7,"EYE DISORDERS","CONJUNCTIVITIS","CONJUNCTIVITIS","MODERATE","N",104,118
"01-707-1206","Placebo",8,"EYE DISORDERS","CONJUNCTIVITIS","CONJUNCTIVITIS","MODERATE","N",104,118
"01-707-1206","Placebo",1,"CARDIAC DISORDERS","SINUS ARRHYTHMIA","SINUS ARRHYTHMIA","MILD","N",29,57
"01-707-1206","Placebo",6,"CARDIAC DISORDERS","SINUS ARRHYTHMIA","SINUS ARRHYTHMIA","MILD","N",29,57
"01-707-1206","Placebo",3,"RESPIRATORY, THORACIC AND MEDIASTINAL DISORDERS","POSTNASAL DRIP","POSTNASAL DRIP","MILD","N",37,44
"01-707-1206","Placebo",5,"RESPIRATORY, THORACIC AND MEDIASTINAL DISORDERS","POSTNASAL DRIP","POSTNASAL DRIP","MILD","N",37,44
"01-708-1019","Xanomeline Low Dose",1,"NERVOUS SYSTEM DISORDERS","HEADACHE","HEADACHE","SEVERE","N",12,12
"01-708-1019","Xanomeline Low Dose",2,"NERVOUS SYSTEM DISORDERS","STUPOR","STUPOR","SEVERE","N",13,13
"01-708-1019","Xanomeline Low Dose",3,"NERVOUS SYSTEM DISORDERS","TRANSIENT ISCHAEMIC ATTACK","TRANSIENT ISCHAEMIC ATTACK","SEVERE","N",13,13
"01-708-1019","Xanomeline Low Dose",4,"EYE DISORDERS","VISION BLURRED","VISION BLURRED","MILD","N",13,13
"01-708-1019","Xanomeline Low Dose",5,"NERVOUS SYSTEM DISORDERS","DIZZINESS","DIZZINESS","MILD","N",13,13
"01-708-1032","Xanomeline Low Dose",1,"GENERAL DISORDERS AND ADMINISTRATION SITE CONDITIONS","APPLICATION SITE VESICLES","APPLICATION SITE VESICLES","MODERATE","N",18,29
"01-708-1084","Xanomeline Low Dose",1,"NERVOUS SYSTEM DISORDERS","DIZZINESS","DIZZINESS","MILD","N",15,15
"01-708-1084","Xanomeline Low Dose",2,"NERVOUS SYSTEM DISORDERS","DIZZINESS","DIZZINESS","MILD","N",15,15
"01-708-1084","Xanomeline Low Dose",3,"CARDIAC DISORDERS","MYOCARDIAL INFARCTION","MYOCARDIAL INFARCTION","MILD","N",32,32
"01-708-1084","Xanomeline Low Dose",4,"CARDIAC DISORDERS","MYOCARDIAL INFARCTION","MYOCARDIAL INFARCTION","MILD","N",32,32
"01-708-1084","Xanomeline Low Dose",5,"CARDIAC DISORDERS","SINUS BRADYCARDIA","SINUS BRADYCARDIA","MILD","N",46,46
"01-708-1084","Xanomeline Low Dose",6,"CARDIAC DISORDERS","SINUS BRADYCARDIA","SINUS BRADYCARDIA","MILD","N",46,46
"01-708-1087","Placebo",1,"INVESTIGATIONS","HEART RATE IRREGULAR","HEART RATE IRREGULAR","MILD","N",90,90
"01-708-1087","Placebo",2,"INVESTIGATIONS","HEART RATE IRREGULAR","HEART RATE IRREGULAR","MILD","N",90,90
"01-708-1087","Placebo",3,"NERVOUS SYSTEM DISORDERS","DIZZINESS","DIZZINESS","MILD","N",106,110
"01-708-1087","Placebo",4,"NERVOUS SYSTEM DISORDERS","HEADACHE","HEADACHE","MILD","N",118,
"01-708-1087","Placebo",5,"INVESTIGATIONS","HEART RATE IRREGULAR","HEART RATE IRREGULAR","MILD","N",146,146
"01-708-1087","Placebo",6,"INVESTIGATIONS","HEART RATE IRREGULAR","HEART RATE IRREGULAR","MILD","N",146,146
"01-708-1158","Placebo",1,"PSYCHIATRIC DISORDERS","AGITATION","AGITATION","MILD","N",18,
"01-708-1158","Placebo",2,"SKIN AND SUBCUTANEOUS TISSUE DISORDERS","ERYTHEMA","ERYTHEMA","MILD","N",43,43
"01-708-1178","Xanomeline High Dose",6,"NERVOUS SYSTEM DISORDERS","DIZZINESS","DIZZINESS","SEVERE","N",86,88
"01-708-1178","Xanomeline High Dose",7,"CARDIAC DISORDERS","ATRIAL FIBRILLATION","ATRIAL FIBRILLATION","SEVERE","N",86,88
"01-708-1178","Xanomeline High Dose",2,"INFECTIONS AND INFESTATIONS","NASOPHARYNGITIS","NASOPHARYNGITIS","MILD","N",63,70
"01-708-1178","Xanomeline High Dose",3,"GENERAL DISORDERS AND ADMINISTRATION SITE CONDITIONS","APPLICATION SITE PRURITUS","APPLICATION SITE PRURITUS","MILD","N",71,99
"01-708-1178","Xanomeline High Dose",4,"CONGENITAL, FAMILIAL AND GENETIC DISORDERS","VENTRICULAR SEPTAL DEFECT","VENTRICULAR SEPTAL DEFECT","MILD","N",71,
"01-708-1178","Xanomeline High Dose",5,"GENERAL DISORDERS AND ADMINISTRATION SITE CONDITIONS","APPLICATION SITE PRURITUS","APPLICATION SITE PRURITUS","MILD","N",71,99
"01-708-1178","Xanomeline High Dose",8,"INFECTIONS AND INFESTATIONS","CYSTITIS","CYSTITIS","MILD","N",86,90
"01-708-1178","Xanomeline High Dose",9,"SOCIAL CIRCUMSTANCES","ALCOHOL USE","ALCOHOL USE","MILD","N",86,86
"01-708-1213","Xanomeline High Dose",1,"CARDIAC DISORDERS","ATRIAL FIBRILLATION","ATRIAL FIBRILLATION","MILD","N",14,14
"01-708-1213","Xanomeline High Dose",2,"CARDIAC DISORDERS","ATRIAL FIBRILLATION","ATRIAL FIBRILLATION","MILD","N",14,14
"01-708-1216","Xanomeline High Dose",1,"GENERAL DISORDERS AND ADMINISTRATION SITE CONDITIONS","APPLICATION SITE PRURITUS","APPLICATION SITE PRURITUS","MILD","N",14,
"01-708-1216","Xanomeline High Dose",2,"GENERAL DISORDERS AND ADMINISTRATION SITE CONDITIONS","APPLICATION SITE ERYTHEMA","APPLICATION SITE ERYTHEMA","MILD","N",14,51
"01-708-1216","Xanomeline High Dose",4,"GENERAL DISORDERS AND ADMINISTRATION SITE CONDITIONS","APPLICATION SITE ERYTHEMA","APPLICATION SITE ERYTHEMA","MILD","N",14,51
"01-708-1216","Xanomeline High Dose",3,"GENERAL DISORDERS AND ADMINISTRATION SITE CONDITIONS","APPLICATION SITE SWELLING","APPLICATION SITE SWELLING","MILD","N",30,
"01-708-1253","Placebo",3,"INVESTIGATIONS","HEART RATE INCREASED","HEART RATE INCREASED","MILD","N",1,4
"01-708-1253","Placebo",6,"INVESTIGATIONS","HEART RATE INCREASED","HEART RATE INCREASED","MILD","N",1,4
"01-708-1253","Placebo",7,"NERVOUS SYSTEM DISORDERS","DIZZINESS","DIZZINESS","MILD","N",32,32
"01-708-1253","Placebo",8,"NERVOUS SYSTEM DISORDERS","DIZZINESS","DIZZINESS","MILD","N",32,32
"01-708-1272","Xanomeline Low Dose",2,"MUSCULOSKELETAL AND CONNECTIVE TISSUE DISORDERS","MUSCLE SPASMS","MUSCLE SPASMS","SEVERE","N",13,13
"01-708-1272","Xanomeline Low Dose",1,"GASTROINTESTINAL DISORDERS","DIARRHOEA","DIARRHOEA","MILD","N",6,6
"01-708-1272","Xanomeline Low Dose",3,"CARDIAC DISORDERS","VENTRICULAR EXTRASYSTOLES","VENTRICULAR EXTRASYSTOLES","MILD","N",16,43
"01-708-1272","Xanomeline Low Dose",12,"CARDIAC DISORDERS","VENTRICULAR EXTRASYSTOLES","VENTRICULAR EXTRASYSTOLES","MILD","N",16,43
"01-708-1272","Xanomeline Low Dose",4,"GENERAL DISORDERS AND ADMINISTRATION SITE CONDITIONS","APPLICATION SITE DERMATITIS","APPLICATION SITE DERMATITIS","MILD","N",22,22
"01-708-1272","Xanomeline Low Dose",5,"RESPIRATORY, THORACIC AND MEDIASTINAL DISORDERS","COUGH","COUGH","MILD","N",24,30
"01-708-1272","Xanomeline Low Dose",6,"INFECTIONS AND INFESTATIONS","NASOPHARYNGITIS","NASOPHARYNGITIS","MILD","N",24,30
"01-708-1272","Xanomeline Low Dose",8,"RESPIRATORY, THORACIC AND MEDIASTINAL DISORDERS","COUGH","COUGH","MILD","N",24,30
"01-708-1272","Xanomeline Low Dose",9,"INFECTIONS AND INFESTATIONS","NASOPHARYNGITIS","NASOPHARYNGITIS","MILD","N",24,30
"01-708-1272","Xanomeline Low Dose",7,"NERVOUS SYSTEM DISORDERS","HEADACHE","HEADACHE","MILD","N",30,30
"01-708-1272","Xanomeline Low Dose",10,"NERVOUS SYSTEM DISORDERS","HEADACHE","HEADACHE","MILD","N",30,30
"01-708-1272","Xanomeline Low Dose",11,"VASCULAR DISORDERS","HOT FLUSH","HOT FLUSH","MILD","N",42,42
"01-708-1286","Placebo",1,"GENERAL DISORDERS AND ADMINISTRATION SITE CONDITIONS","APPLICATION SITE PRURITUS","APPLICATION SITE PRURITUS","MILD","N",3,
"01-708-1286","Placebo",2,"CARDIAC DISORDERS","MYOCARDIAL INFARCTION","MYOCARDIAL INFARCTION","MILD","N",14,
"01-708-1286","Placebo",3,"GASTROINTESTINAL DISORDERS","ABDOMINAL PAIN","ABDOMINAL PAIN","MILD","N",162,162
"01-708-1286","Placebo",4,"GASTROINTESTINAL DISORDERS","CONSTIPATION","CONSTIPATION","MILD","N",162,162
"01-708-1296","Placebo",1,"CARDIAC DISORDERS","ATRIAL HYPERTROPHY","ATRIAL HYPERTROPHY","MILD","N",14,14
"01-708-1296","Placebo",2,"CARDIAC DISORDERS","ATRIAL HYPERTROPHY","ATRIAL HYPERTROPHY","MILD","N",14,14
"01-708-1296","Placebo",3,"GENERAL DISORDERS AND ADMINISTRATION SITE CONDITIONS","APPLICATION SITE PRURITUS","APPLICATION SITE PRURITUS","MILD","N",83,97
"01-708-1296","Placebo",4,"GENERAL DISORDERS AND ADMINISTRATION SITE CONDITIONS","APPLICATION SITE PRURITUS","APPLICATION SITE PRURITUS","MILD","N",83,97
"01-708-1296","Placebo",5,"GENERAL DISORDERS AND ADMINISTRATION SITE CONDITIONS","APPLICATION SITE VESICLES","APPLICATION SITE VESICLES","MILD","N",113,139
"01-708-1296","Placebo",6,"GENERAL DISORDERS AND ADMINISTRATION SITE CONDITIONS","APPLICATION SITE VESICLES","APPLICATION SITE VESICLES","MILD","N",113,139
"01-708-1296","Placebo",7,"MUSCULOSKELETAL AND CONNECTIVE TISSUE DISORDERS","PAIN IN EXTREMITY","PAIN IN EXTREMITY","MILD","N",177,177
"01-708-1297","Xanomeline Low Dose",1,"GENERAL DISORDERS AND ADMINISTRATION SITE CONDITIONS","APPLICATION SITE PRURITUS","APPLICATION SITE PRURITUS","MILD","N",68,
"01-708-1297","Xanomeline Low Dose",2,"GENERAL DISORDERS AND ADMINISTRATION SITE CONDITIONS","APPLICATION SITE SWELLING","APPLICATION SITE SWELLING","MILD","N",68,
"01-708-1297","Xanomeline Low Dose",3,"CARDIAC DISORDERS","SINUS BRADYCARDIA","SINUS BRADYCARDIA","MILD","N",104,
"01-708-1316","Placebo",1,"NERVOUS SYSTEM DISORDERS","HEADACHE","HEADACHE","MILD","N",160,
"01-708-1316","Placebo",2,"GENERAL DISORDERS AND ADMINISTRATION SITE CONDITIONS","APPLICATION SITE ERYTHEMA","APPLICATION SITE ERYTHEMA","MILD","N",177,
"01-708-1336","Xanomeline High Dose",1,"NERVOUS SYSTEM DISORDERS","DIZZINESS","DIZZINESS","MILD","N",12,12
"01-708-1336","Xanomeline High Dose",2,"GENERAL DISORDERS AND ADMINISTRATION SITE CONDITIONS","APPLICATION SITE PRURITUS","APPLICATION SITE PRURITUS","MILD","N",37,37
"01-708-1336","Xanomeline High Dose",3,"NERVOUS SYSTEM DISORDERS","DIZZINESS","DIZZINESS","MILD","N",58,58
"01-708-1336","Xanomeline High Dose",4,"GENERAL DISORDERS AND ADMINISTRATION SITE CONDITIONS","APPLICATION SITE PRURITUS","APPLICATION SITE PRURITUS","MILD","N",125,181
"01-708-1336","Xanomeline High Dose",5,"GENERAL DISORDERS AND ADMINISTRATION SITE CONDITIONS","APPLICATION SITE ERYTHEMA","APPLICATION SITE ERYTHEMA","MILD","N",125,181
"01-708-1336","Xanomeline High Dose",6,"GENERAL DISORDERS AND ADMINISTRATION SITE CONDITIONS","APPLICATION SITE PRURITUS","APPLICATION SITE PRURITUS","MILD","N",125,181
"01-708-1336","Xanomeline High Dose",7,"GENERAL DISORDERS AND ADMINISTRATION SITE CONDITIONS","APPLICATION SITE ERYTHEMA","APPLICATION SITE ERYTHEMA","MILD","N",125,181
"01-708-1347","Xanomeline High Dose",2,"SKIN AND SUBCUTANEOUS TISSUE DISORDERS","ERYTHEMA","ERYTHEMA","MODERATE","N",55,67
"01-708-1347","Xanomeline High Dose",3,"GENERAL DISORDERS AND ADMINISTRATION SITE CONDITIONS","APPLICATION SITE ERYTHEMA","APPLICATION SITE ERYTHEMA","MODERATE","N",55,67
"01-708-1347","Xanomeline High Dose",4,"GENERAL DISORDERS AND ADMINISTRATION SITE CONDITIONS","APPLICATION SITE SWELLING","APPLICATION SITE SWELLING","MODERATE","N",55,67
"01-708-1347","Xanomeline High Dose",6,"SKIN AND SUBCUTANEOUS TISSUE DISORDERS","ERYTHEMA","ERYTHEMA","MODERATE","N",55,67
"01-708-1347","Xanomeline High Dose",7,"GENERAL DISORDERS AND ADMINISTRATION SITE CONDITIONS","APPLICATION SITE ERYTHEMA","APPLICATION SITE ERYTHEMA","MODERATE","N",55,67
"01-708-1347","Xanomeline High Dose",8,"GENERAL DISORDERS AND ADMINISTRATION SITE CONDITIONS","APPLICATION SITE SWELLING","APPLICATION SITE SWELLING","MODERATE","N",55,67
"01-708-1347","Xanomeline High Dose",1,"SKIN AND SUBCUTANEOUS TISSUE DISORDERS","PRURITUS","PRURITUS","MILD","N",55,67
"01-708-1347","Xanomeline High Dose",5,"SKIN AND SUBCUTANEOUS TISSUE DISORDERS","PRURITUS","PRURITUS","MILD","N",55,67
"01-708-1348","Xanomeline Low Dose",1,"CARDIAC DISORDERS","MYOCARDIAL INFARCTION","MYOCARDIAL INFARCTION","MILD","N",14,27
"01-708-1348","Xanomeline Low Dose",2,"CARDIAC DISORDERS","MYOCARDIAL INFARCTION","MYOCARDIAL INFARCTION","MILD","N",14,27
"01-708-1348","Xanomeline Low Dose",3,"GENERAL DISORDERS AND ADMINISTRATION SITE CONDITIONS","APPLICATION SITE PRURITUS","APPLICATION SITE PRURITUS","MILD","N",119,
"01-708-1353","Xanomeline Low Dose",1,"NERVOUS SYSTEM DISORDERS","DIZZINESS","DIZZINESS","MILD","N",46,69
"01-708-1353","Xanomeline Low Dose",2,"NERVOUS SYSTEM DISORDERS","DIZZINESS","DIZZINESS","MILD","N",46,69
"01-708-1353","Xanomeline Low Dose",3,"VASCULAR DISORDERS","HYPOTENSION","HYPOTENSION","MILD","N",56,69
"01-708-1406","Xanomeline High Dose",1,"GENERAL DISORDERS AND ADMINISTRATION SITE CONDITIONS","OEDEMA PERIPHERAL","OEDEMA PERIPHERAL","MILD","N",173,
"01-708-1406","Xanomeline High Dose",2,"GENERAL DISORDERS AND ADMINISTRATION SITE CONDITIONS","OEDEMA PERIPHERAL","OEDEMA PERIPHERAL","MILD","N",173,
"01-708-1428","Xanomeline Low Dose",5,"GENERAL DISORDERS AND ADMINISTRATION SITE CONDITIONS","APPLICATION SITE PRURITUS","APPLICATION SITE PRURITUS","SEVERE","N",32,43
"01-708-1428","Xanomeline Low Dose",6,"GENERAL DISORDERS AND ADMINISTRATION SITE CONDITIONS","APPLICATION SITE ERYTHEMA","APPLICATION SITE ERYTHEMA","SEVERE","N",32,43
"01-708-1428","Xanomeline Low Dose",7,"GENERAL DISORDERS AND ADMINISTRATION SITE CONDITIONS","APPLICATION SITE WARMTH","APPLICATION SITE WARMTH","SEVERE","N",32,43
"01-708-1428","Xanomeline Low Dose",2,"GENERAL DISORDERS AND ADMINISTRATION SITE CONDITIONS","APPLICATION SITE PRURITUS","APPLICATION SITE PRURITUS","MODERATE","N",32,43
"01-708-1428","Xanomeline Low Dose",3,"GENERAL DISORDERS AND ADMINISTRATION SITE CONDITIONS","APPLICATION SITE ERYTHEMA","APPLICATION SITE ERYTHEMA","MODERATE","N",32,43
"01-708-1428","Xanomeline Low Dose",4,"GENERAL DISORDERS AND ADMINISTRATION SITE CONDITIONS","APPLICATION SITE WARMTH","APPLICATION SITE WARMTH","MODERATE","N",32,43
"01-708-1428","Xanomeline Low Dose",1,"RESPIRATORY, THORACIC AND MEDIASTINAL DISORDERS","EPISTAXIS","EPISTAXIS","MILD","N",14,14
"01-709-1007","Xanomeline Low Dose",3,"GENERAL DISORDERS AND ADMINISTRATION SITE CONDITIONS","APPLICATION SITE DERMATITIS","APPLICATION SITE DERMATITIS","SEVERE","N",22,
"01-709-1007","Xanomeline Low Dose",1,"GENERAL DISORDERS AND ADMINISTRATION SITE CONDITIONS","APPLICATION SITE DERMATITIS","APPLICATION SITE DERMATITIS","MILD","N",17,20
"01-709-1007","Xanomeline Low Dose",2,"GENERAL DISORDERS AND ADMINISTRATION SITE CONDITIONS","APPLICATION SITE DERMATITIS","APPLICATION SITE DERMATITIS","MILD","N",17,20
"01-709-1007","Xanomeline Low Dose",4,"GASTROINTESTINAL DISORDERS","DIARRHOEA","DIARRHOEA","MILD","N",31,31
"01-709-1020","Xanomeline Low Dose",1,"GENERAL DISORDERS AND ADMINISTRATION SITE CONDITIONS","APPLICATION SITE DERMATITIS","APPLICATION SITE DERMATITIS","MILD","N",27,
"01-709-1020","Xanomeline Low Dose",2,"GASTROINTESTINAL DISORDERS","DIARRHOEA","DIARRHOEA","MILD","N",34,42
"01-709-1020","Xanomeline Low Dose",3,"GASTROINTESTINAL DISORDERS","ABDOMINAL PAIN","ABDOMINAL PAIN","MILD","N",34,42
"01-709-1020","Xanomeline Low Dose",4,"GENERAL DISORDERS AND ADMINISTRATION SITE CONDITIONS","APPLICATION SITE PRURITUS","APPLICATION SITE PRURITUS","MILD","N",46,
"01-709-1029","Xanomeline High Dose",1,"CARDIAC DISORDERS","MYOCARDIAL INFARCTION","MYOCARDIAL INFARCTION","MILD","N",16,57
"01-709-1029","Xanomeline High Dose",4,"CARDIAC DISORDERS","MYOCARDIAL INFARCTION","MYOCARDIAL INFARCTION","MILD","N",16,57
"01-709-1029","Xanomeline High Dose",2,"GENERAL DISORDERS AND ADMINISTRATION SITE CONDITIONS","APPLICATION SITE ERYTHEMA","APPLICATION SITE ERYTHEMA","MILD","N",24,
"01-709-1029","Xanomeline High Dose",3,"MUSCULOSKELETAL AND CONNECTIVE TISSUE DISORDERS","MUSCLE SPASMS","MUSCLE SPASMS","MILD","N",31,65
"01-709-1029","Xanomeline High Dose",5,"MUSCULOSKELETAL AND CONNECTIVE TISSUE DISORDERS","MUSCLE SPASMS","MUSCLE SPASMS","MILD","N",31,65
"01-709-1029","Xanomeline High Dose",6,"CARDIAC DISORDERS","MYOCARDIAL INFARCTION","MYOCARDIAL INFARCTION","MILD","N",86,113
"01-709-1029","Xanomeline High Dose",7,"CARDIAC DISORDERS","SINUS BRADYCARDIA","SINUS BRADYCARDIA","MILD","N",86,113
"01-709-1029","Xanomeline High Dose",8,"CARDIAC DISORDERS","MYOCARDIAL INFARCTION","MYOCARDIAL INFARCTION","MILD","N",86,113
"01-709-1029","Xanomeline High Dose",9,"CARDIAC DISORDERS","SINUS BRADYCARDIA","SINUS BRADYCARDIA","MILD","N",86,113
"01-709-1029","Xanomeline High Dose",10,"RESPIRATORY, THORACIC AND MEDIASTINAL DISORDERS","COUGH","COUGH","MILD","N",139,146
"01-709-1029","Xanomeline High Dose",11,"RESPIRATORY, THORACIC AND MEDIASTINAL DISORDERS","PHARYNGEAL ERYTHEMA","PHARYNGEAL ERYTHEMA","MILD","N",139,146
"01-709-1029","Xanomeline High Dose",13,"RESPIRATORY, THORACIC AND MEDIASTINAL DISORDERS","COUGH","COUGH","MILD","N",139,146
"01-709-1029","Xanomeline High Dose",14,"RESPIRATORY, THORACIC AND MEDIASTINAL DISORDERS","PHARYNGEAL ERYTHEMA","PHARYNGEAL ERYTHEMA","MILD","N",139,146
"01-709-1029","Xanomeline High Dose",12,"CARDIAC DISORDERS","MYOCARDIAL INFARCTION","MYOCARDIAL INFARCTION","MILD","N",142,
"01-709-1029","Xanomeline High Dose",15,"CARDIAC DISORDERS","SINUS BRADYCARDIA","SINUS BRADYCARDIA","MILD","N",170,
"01-709-1029","Xanomeline High Dose",16,"SKIN AND SUBCUTANEOUS TISSUE DISORDERS","PRURITUS","PRURITUS","MILD","N",177,
"01-709-1081","Xanomeline Low Dose",1,"SKIN AND SUBCUTANEOUS TISSUE DISORDERS","RASH","RASH","MODERATE","N",80,
"01-709-1081","Xanomeline Low Dose",2,"GENERAL DISORDERS AND ADMINISTRATION SITE CONDITIONS","OEDEMA PERIPHERAL","OEDEMA PERIPHERAL","MODERATE","N",104,
"01-709-1088","Placebo",1,"GENERAL DISORDERS AND ADMINISTRATION SITE CONDITIONS","APPLICATION SITE DERMATITIS","APPLICATION SITE DERMATITIS","MILD","N",27,
"01-709-1088","Placebo",2,"SKIN AND SUBCUTANEOUS TISSUE DISORDERS","RASH","RASH","MILD","N",113,
"01-709-1099","Xanomeline High Dose",6,"GENERAL DISORDERS AND ADMINISTRATION SITE CONDITIONS","APPLICATION SITE DERMATITIS","APPLICATION SITE DERMATITIS","MODERATE","N",19,
"01-709-1099","Xanomeline High Dose",7,"GENERAL DISORDERS AND ADMINISTRATION SITE CONDITIONS","APPLICATION SITE PRURITUS","APPLICATION SITE PRURITUS","MODERATE","N",19,
"01-709-1099","Xanomeline High Dose",1,"INFECTIONS AND INFESTATIONS","NASOPHARYNGITIS","NASOPHARYNGITIS","MILD","N",13,24
"01-709-1099","Xanomeline High Dose",5,"INFECTIONS AND INFESTATIONS","NASOPHARYNGITIS","NASOPHARYNGITIS","MILD","N",13,24
"01-709-1099","Xanomeline High Dose",2,"GENERAL DISORDERS AND ADMINISTRATION SITE CONDITIONS","APPLICATION SITE DERMATITIS","APPLICATION SITE DERMATITIS","MILD","N",19,
"01-709-1099","Xanomeline High Dose",3,"GENERAL DISORDERS AND ADMINISTRATION SITE CONDITIONS","APPLICATION SITE VESICLES","APPLICATION SITE VESICLES","MILD","N",19,
"01-709-1099","Xanomeline High Dose",4,"GENERAL DISORDERS AND ADMINISTRATION SITE CONDITIONS","APPLICATION SITE PRURITUS","APPLICATION SITE PRURITUS","MILD","N",19,
"01-709-1099","Xanomeline High Dose",8,"SURGICAL AND MEDICAL PROCEDURES","ACROCHORDON EXCISION","ACROCHORDON EXCISION","MILD","N",150,150
"01-709-1102","Xanomeline Low Dose",3,"GENERAL DISORDERS AND ADMINISTRATION SITE CONDITIONS","APPLICATION SITE DERMATITIS","APPLICATION SITE DERMATITIS","MODERATE","N",28,
"01-709-1102","Xanomeline Low Dose",4,"GENERAL DISORDERS AND ADMINISTRATION SITE CONDITIONS","APPLICATION SITE PRURITUS","APPLICATION SITE PRURITUS","MODERATE","N",28,
"01-709-1102","Xanomeline Low Dose",1,"GENERAL DISORDERS AND ADMINISTRATION SITE CONDITIONS","APPLICATION SITE DERMATITIS","APPLICATION SITE DERMATITIS","MILD","N",28,
"01-709-1102","Xanomeline Low Dose",2,"GENERAL DISORDERS AND ADMINISTRATION SITE CONDITIONS","APPLICATION SITE PRURITUS","APPLICATION SITE PRURITUS","MILD","N",28,
"01-709-1102","Xanomeline Low Dose",5,"NERVOUS SYSTEM DISORDERS","DIZZINESS","DIZZINESS","MILD","N",65,71
"01-709-1102","Xanomeline Low Dose",6,"GENERAL DISORDERS AND ADMINISTRATION SITE CONDITIONS","APPLICATION SITE VESICLES","APPLICATION SITE VESICLES","MILD","N",71,72
"01-709-1168","Xanomeline High Dose",3,"SKIN AND SUBCUTANEOUS TISSUE DISORDERS","PRURITUS","PRURITUS","MODERATE","N",36,71
"01-709-1168","Xanomeline High Dose",4,"SKIN AND SUBCUTANEOUS TISSUE DISORDERS","RASH","RASH","MODERATE","N",36,71
"01-709-1168","Xanomeline High Dose",5,"SKIN AND SUBCUTANEOUS TISSUE DISORDERS","PRURITUS","PRURITUS","MODERATE","N",36,71
"01-709-1168","Xanomeline High Dose",6,"SKIN AND SUBCUTANEOUS TISSUE DISORDERS","RASH","RASH","MODERATE","N",36,71
"01-709-1168","Xanomeline High Dose",1,"SKIN AND SUBCUTANEOUS TISSUE DISORDERS","SKIN IRRITATION","SKIN IRRITATION","MILD","N",16,36
"01-709-1168","Xanomeline High Dose",2,"SKIN AND SUBCUTANEOUS TISSUE DISORDERS","SKIN IRRITATION","SKIN IRRITATION","MILD","N",16,36
"01-709-1217","Xanomeline Low Dose",1,"NERVOUS SYSTEM DISORDERS","DIZZINESS","DIZZINESS","MODERATE","N",3,3
"01-709-1217","Xanomeline Low Dose",8,"GENERAL DISORDERS AND ADMINISTRATION SITE CONDITIONS","APPLICATION SITE DERMATITIS","APPLICATION SITE DERMATITIS","MODERATE","N",23,107
"01-709-1217","Xanomeline Low Dose",10,"GENERAL DISORDERS AND ADMINISTRATION SITE CONDITIONS","APPLICATION SITE DERMATITIS","APPLICATION SITE DERMATITIS","MODERATE","N",23,107
"01-709-1217","Xanomeline Low Dose",11,"SKIN AND SUBCUTANEOUS TISSUE DISORDERS","PRURITUS","PRURITUS","MODERATE","N",85,107
"01-709-1217","Xanomeline Low Dose",2,"RESPIRATORY, THORACIC AND MEDIASTINAL DISORDERS","COUGH","COUGH","MILD","N",17,
"01-709-1217","Xanomeline Low Dose",3,"GENERAL DISORDERS AND ADMINISTRATION SITE CONDITIONS","APPLICATION SITE DERMATITIS","APPLICATION SITE DERMATITIS","MILD","N",23,107
"01-709-1217","Xanomeline Low Dose",4,"NERVOUS SYSTEM DISORDERS","DIZZINESS","DIZZINESS","MILD","N",24,24
"01-709-1217","Xanomeline Low Dose",5,"INVESTIGATIONS","ELECTROCARDIOGRAM T WAVE INVERSION","ELECTROCARDIOGRAM T WAVE INVERSION","MILD","N",27,
"01-709-1217","Xanomeline Low Dose",6,"NERVOUS SYSTEM DISORDERS","DIZZINESS","DIZZINESS","MILD","N",29,39
"01-709-1217","Xanomeline Low Dose",7,"NERVOUS SYSTEM DISORDERS","DIZZINESS","DIZZINESS","MILD","N",29,39
"01-709-1217","Xanomeline Low Dose",9,"NERVOUS SYSTEM DISORDERS","HEADACHE","HEADACHE","MILD","N",75,76
"01-709-1238","Xanomeline High Dose",1,"GASTROINTESTINAL DISORDERS","DIARRHOEA","DIARRHOEA","MODERATE","N",14,14
"01-709-1238","Xanomeline High Dose",2,"GENERAL DISORDERS AND ADMINISTRATION SITE CONDITIONS","APPLICATION SITE DERMATITIS","APPLICATION SITE DERMATITIS","MODERATE","N",16,
"01-709-1238","Xanomeline High Dose",3,"GENERAL DISORDERS AND ADMINISTRATION SITE CONDITIONS","APPLICATION SITE PRURITUS","APPLICATION SITE PRURITUS","MODERATE","N",16,
"01-709-1238","Xanomeline High Dose",4,"GENERAL DISORDERS AND ADMINISTRATION SITE CONDITIONS","APPLICATION SITE DISCHARGE","APPLICATION SITE DISCHARGE","MODERATE","N",16,
"01-709-1238","Xanomeline High Dose",5,"INJURY, POISONING AND PROCEDURAL COMPLICATIONS","HIP FRACTURE","HIP FRACTURE","MODERATE","N",17,17
"01-709-1238","Xanomeline High Dose",6,"RESPIRATORY, THORACIC AND MEDIASTINAL DISORDERS","COUGH","COUGH","MODERATE","N",26,
"01-709-1238","Xanomeline High Dose",7,"INFECTIONS AND INFESTATIONS","UPPER RESPIRATORY TRACT INFECTION","UPPER RESPIRATORY TRACT INFECTION","MODERATE","N",26,
"01-709-1238","Xanomeline High Dose",8,"SURGICAL AND MEDICAL PROCEDURES","SKIN LESION EXCISION","SKIN LESION EXCISION","MILD","N",45,45
"01-709-1259","Placebo",6,"REPRODUCTIVE SYSTEM AND BREAST DISORDERS","BENIGN PROSTATIC HYPERPLASIA","BENIGN PROSTATIC HYPERPLASIA","SEVERE","N",51,64
"01-709-1259","Placebo",1,"INFECTIONS AND INFESTATIONS","LOCALISED INFECTION","LOCALISED INFECTION","MILD","N",11,19
"01-709-1259","Placebo",2,"INFECTIONS AND INFESTATIONS","LOCALISED INFECTION","LOCALISED INFECTION","MILD","N",11,19
"01-709-1259","Placebo",3,"INVESTIGATIONS","BLOOD URINE PRESENT","BLOOD URINE PRESENT","MILD","N",48,
"01-709-1259","Placebo",4,"INVESTIGATIONS","CYSTOSCOPY","CYSTOSCOPY","MILD","N",51,51
"01-709-1259","Placebo",5,"REPRODUCTIVE SYSTEM AND BREAST DISORDERS","BENIGN PROSTATIC HYPERPLASIA","BENIGN PROSTATIC HYPERPLASIA","MILD","N",51,64
"01-709-1259","Placebo",7,"GENERAL DISORDERS AND ADMINISTRATION SITE CONDITIONS","PYREXIA","PYREXIA","MILD","N",78,79
"01-709-1259","Placebo",8,"METABOLISM AND NUTRITION DISORDERS","DEHYDRATION","DEHYDRATION","MILD","N",78,79
"01-709-1259","Placebo",9,"VASCULAR DISORDERS","HYPOTENSION","HYPOTENSION","MILD","N",78,79
"01-709-1259","Placebo",10,"VASCULAR DISORDERS","ORTHOSTATIC HYPOTENSION","ORTHOSTATIC HYPOTENSION","MILD","N",85,139
"01-709-1259","Placebo",11,"VASCULAR DISORDERS","ORTHOSTATIC HYPOTENSION","ORTHOSTATIC HYPOTENSION","MILD","N",85,139
"01-709-1285","Xanomeline Low Dose",1,"NERVOUS SYSTEM DISORDERS","HEMIANOPIA HOMONYMOUS","HEMIANOPIA HOMONYMOUS","MILD","N",22,
"01-709-1285","Xanomeline Low Dose",2,"GENERAL DISORDERS AND ADMINISTRATION SITE CONDITIONS","APPLICATION SITE DERMATITIS","APPLICATION SITE DERMATITIS","MILD","N",27,69
"01-709-1285","Xanomeline Low Dose",3,"GENERAL DISORDERS AND ADMINISTRATION SITE CONDITIONS","APPLICATION SITE PRURITUS","APPLICATION SITE PRURITUS","MILD","N",27,69
"01-709-1285","Xanomeline Low Dose",5,"GENERAL DISORDERS AND ADMINISTRATION SITE CONDITIONS","APPLICATION SITE DERMATITIS","APPLICATION SITE DERMATITIS","MILD","N",27,69
"01-709-1285","Xanomeline Low Dose",6,"GENERAL DISORDERS AND ADMINISTRATION SITE CONDITIONS","APPLICATION SITE PRURITUS","APPLICATION SITE PRURITUS","MILD","N",27,69
"01-709-1285","Xanomeline Low Dose",4,"CARDIAC DISORDERS","SINUS BRADYCARDIA","SINUS BRADYCARDIA","MILD","N",57,
"01-709-1301","Placebo",1,"METABOLISM AND NUTRITION DISORDERS","DIABETES MELLITUS","DIABETES MELLITUS","MILD","N",43,
"01-709-1306","Placebo",3,"SKIN AND SUBCUTANEOUS TISSUE DISORDERS","RASH","RASH","MODERATE","N",77,141
"01-709-1306","Placebo",4,"GENERAL DISORDERS AND ADMINISTRATION SITE CONDITIONS","APPLICATION SITE PRURITUS","APPLICATION SITE PRURITUS","MODERATE","N",77,141
"01-709-1306","Placebo",7,"SKIN AND SUBCUTANEOUS TISSUE DISORDERS","RASH","RASH","MODERATE","N",77,141
"01-709-1306","Placebo",8,"GENERAL DISORDERS AND ADMINISTRATION SITE CONDITIONS","APPLICATION SITE PRURITUS","APPLICATION SITE PRURITUS","MODERATE","N",77,141
"01-709-1306","Placebo",5,"GENERAL DISORDERS AND ADMINISTRATION SITE CONDITIONS","APPLICATION SITE IRRITATION","APPLICATION SITE IRRITATION","MODERATE","N",91,141
"01-709-1306","Placebo",9,"GENERAL DISORDERS AND ADMINISTRATION SITE CONDITIONS","APPLICATION SITE IRRITATION","APPLICATION SITE IRRITATION","MODERATE","N",91,141
"01-709-1306","Placebo",1,"SKIN AND SUBCUTANEOUS TISSUE DISORDERS","RASH","RASH","MILD","N",77,141
"01-709-1306","Placebo",2,"GENERAL DISORDERS AND ADMINISTRATION SITE CONDITIONS","APPLICATION SITE PRURITUS","APPLICATION SITE PRURITUS","MILD","N",77,141
"01-709-1306","Placebo",6,"SKIN AND SUBCUTANEOUS TISSUE DISORDERS","DRUG ERUPTION","DRUG ERUPTION","MILD","N",107,110
"01-709-1309","Xanomeline High Dose",3,"GASTROINTESTINAL DISORDERS","VOMITING","VOMITING","MILD","N",1,1
"01-709-1309","Xanomeline High Dose",4,"GASTROINTESTINAL DISORDERS","VOMITING","VOMITING","MILD","N",1,1
"01-709-1309","Xanomeline High Dose",5,"RESPIRATORY, THORACIC AND MEDIASTINAL DISORDERS","NASAL CONGESTION","NASAL CONGESTION","MILD","N",1,2
"01-709-1309","Xanomeline High Dose",6,"PSYCHIATRIC DISORDERS","NIGHTMARE","NIGHTMARE","MILD","N",1,2
"01-709-1309","Xanomeline High Dose",7,"SKIN AND SUBCUTANEOUS TISSUE DISORDERS","RASH MACULO-PAPULAR","RASH MACULO-PAPULAR","MILD","N",2,
"01-709-1309","Xanomeline High Dose",8,"INVESTIGATIONS","BIOPSY","BIOPSY","MILD","N",8,8
"01-709-1309","Xanomeline High Dose",9,"NERVOUS SYSTEM DISORDERS","DIZZINESS","DIZZINESS","MILD","N",13,13
"01-709-1309","Xanomeline High Dose",11,"NERVOUS SYSTEM DISORDERS","DIZZINESS","DIZZINESS","MILD","N",13,13
"01-709-1309","Xanomeline High Dose",12,"RESPIRATORY, THORACIC AND MEDIASTINAL DISORDERS","ALLERGIC GRANULOMATOUS ANGIITIS","ALLERGIC GRANULOMATOUS ANGIITIS","MILD","N",16,16
"01-709-1309","Xanomeline High Dose",14,"GENERAL DISORDERS AND ADMINISTRATION SITE CONDITIONS","APPLICATION SITE PRURITUS","APPLICATION SITE PRURITUS","MILD","N",40,
"01-709-1309","Xanomeline High Dose",15,"GENERAL DISORDERS AND ADMINISTRATION SITE CONDITIONS","FEELING COLD","FEELING COLD","MILD","N",80,
"01-709-1312","Placebo",1,"GENERAL DISORDERS AND ADMINISTRATION SITE CONDITIONS","APPLICATION SITE DERMATITIS","APPLICATION SITE DERMATITIS","MILD","N",28,
"01-709-1312","Placebo",2,"INVESTIGATIONS","ELECTROCARDIOGRAM ST SEGMENT DEPRESSION","ELECTROCARDIOGRAM ST SEGMENT DEPRESSION","MILD","N",183,
"01-709-1326","Xanomeline Low Dose",5,"GENERAL DISORDERS AND ADMINISTRATION SITE CONDITIONS","APPLICATION SITE BLEEDING","APPLICATION SITE BLEEDING","MODERATE","N",64,74
"01-709-1326","Xanomeline Low Dose",1,"GENERAL DISORDERS AND ADMINISTRATION SITE CONDITIONS","APPLICATION SITE DERMATITIS","APPLICATION SITE DERMATITIS","MILD","N",27,
"01-709-1326","Xanomeline Low Dose",2,"GENERAL DISORDERS AND ADMINISTRATION SITE CONDITIONS","APPLICATION SITE PRURITUS","APPLICATION SITE PRURITUS","MILD","N",27,
"01-709-1326","Xanomeline Low Dose",3,"GASTROINTESTINAL DISORDERS","VOMITING","VOMITING","MILD","N",47,47
"01-709-1326","Xanomeline Low Dose",4,"NERVOUS SYSTEM DISORDERS","SYNCOPE","SYNCOPE","MILD","N",47,47
"01-709-1326","Xanomeline Low Dose",6,"RESPIRATORY, THORACIC AND MEDIASTINAL DISORDERS","COUGH","COUGH","MILD","N",99,
"01-709-1329","Xanomeline High Dose",1,"NERVOUS SYSTEM DISORDERS","DIZZINESS","DIZZINESS","MILD","N",11,11
"01-709-1329","Xanomeline High Dose",2,"GENERAL DISORDERS AND ADMINISTRATION SITE CONDITIONS","PYREXIA","PYREXIA","MILD","N",11,11
"01-709-1339","Placebo",2,"INVESTIGATIONS","BLOOD ALKALINE PHOSPHATASE INCREASED","BLOOD ALKALINE PHOSPHATASE INCREASED","MODERATE","N",141,
"01-709-1424","Xanomeline High Dose",1,"NERVOUS SYSTEM DISORDERS","SYNCOPE","SYNCOPE","MODERATE","Y",5,5
"01-710-1002","Xanomeline Low Dose",1,"NERVOUS SYSTEM DISORDERS","TRANSIENT ISCHAEMIC ATTACK","TRANSIENT ISCHAEMIC ATTACK","MILD","N",3,7
"01-710-1002","Xanomeline Low Dose",2,"NERVOUS SYSTEM DISORDERS","TRANSIENT ISCHAEMIC ATTACK","TRANSIENT ISCHAEMIC ATTACK","MILD","N",3,7
"01-710-1006","Xanomeline High Dose",6,"RENAL AND URINARY DISORDERS","NEPHROLITHIASIS","NEPHROLITHIASIS","MODERATE","N",67,67
"01-710-1006","Xanomeline High Dose",7,"SKIN AND SUBCUTANEOUS TISSUE DISORDERS","PRURITUS","PRURITUS","MODERATE","N",98,
"01-710-1006","Xanomeline High Dose",8,"CARDIAC DISORDERS","SINUS BRADYCARDIA","SINUS BRADYCARDIA","MODERATE","N",140,145
"01-710-1006","Xanomeline High Dose",9,"CARDIAC DISORDERS","SINUS BRADYCARDIA","SINUS BRADYCARDIA","MODERATE","N",140,145
"01-710-1006","Xanomeline High Dose",11,"INJURY, POISONING AND PROCEDURAL COMPLICATIONS","FACIAL BONES FRACTURE","FACIAL BONES FRACTURE","MODERATE","N",180,
"01-710-1006","Xanomeline High Dose",1,"NERVOUS SYSTEM DISORDERS","DIZZINESS","DIZZINESS","MILD","N",9,10
"01-710-1006","Xanomeline High Dose",2,"GASTROINTESTINAL DISORDERS","SALIVARY HYPERSECRETION","SALIVARY HYPERSECRETION","MILD","N",20,
"01-710-1006","Xanomeline High Dose",3,"SKIN AND SUBCUTANEOUS TISSUE DISORDERS","SKIN IRRITATION","SKIN IRRITATION","MILD","N",20,
"01-710-1006","Xanomeline High Dose",4,"NERVOUS SYSTEM DISORDERS","DIZZINESS","DIZZINESS","MILD","N",66,66
"01-710-1006","Xanomeline High Dose",5,"INFECTIONS AND INFESTATIONS","URINARY TRACT INFECTION","URINARY TRACT INFECTION","MILD","N",67,69
"01-710-1006","Xanomeline High Dose",10,"INJURY, POISONING AND PROCEDURAL COMPLICATIONS","FALL","FALL","MILD","N",180,180
"01-710-1006","Xanomeline High Dose",12,"INJURY, POISONING AND PROCEDURAL COMPLICATIONS","CONTUSION","CONTUSION","MILD","N",180,
"01-710-1021","Xanomeline High Dose",2,"SKIN AND SUBCUTANEOUS TISSUE DISORDERS","PRURITUS","PRURITUS","MODERATE","N",25,35
"01-710-1021","Xanomeline High Dose",3,"SKIN AND SUBCUTANEOUS TISSUE DISORDERS","PRURITUS","PRURITUS","MODERATE","N",25,35
"01-710-1021","Xanomeline High Dose",1,"GENERAL DISORDERS AND ADMINISTRATION SITE CONDITIONS","CHEST PAIN","CHEST PAIN","MILD","N",14,14
"01-710-1027","Placebo",1,"RESPIRATORY, THORACIC AND MEDIASTINAL DISORDERS","HAEMOPTYSIS","HAEMOPTYSIS","MILD","N",71,94
"01-710-1027","Placebo",3,"RESPIRATORY, THORACIC AND MEDIASTINAL DISORDERS","HAEMOPTYSIS","HAEMOPTYSIS","MILD","N",71,94
"01-710-1027","Placebo",2,"RESPIRATORY, THORACIC AND MEDIASTINAL DISORDERS","RALES","RALES","MILD","N",85,113
"01-710-1027","Placebo",4,"RESPIRATORY, THORACIC AND MEDIASTINAL DISORDERS","RALES","RALES","MILD","N",85,113
"01-710-1045","Xanomeline Low Dose",8,"SKIN AND SUBCUTANEOUS TISSUE DISORDERS","SKIN EXFOLIATION","SKIN EXFOLIATION","MODERATE","N",72,76
"01-710-1045","Xanomeline Low Dose",13,"SKIN AND SUBCUTANEOUS TISSUE DISORDERS","SKIN EXFOLIATION","SKIN EXFOLIATION","MODERATE","N",72,76
"01-710-1045","Xanomeline Low Dose",1,"GASTROINTESTINAL DISORDERS","VOMITING","VOMITING","MILD","N",20,20
"01-710-1045","Xanomeline Low Dose",2,"INFECTIONS AND INFESTATIONS","NASOPHARYNGITIS","NASOPHARYNGITIS","MILD","N",30,37
"01-710-1045","Xanomeline Low Dose",3,"SKIN AND SUBCUTANEOUS TISSUE DISORDERS","SKIN IRRITATION","SKIN IRRITATION","MILD","N",30,76
"01-710-1045","Xanomeline Low Dose",4,"SKIN AND SUBCUTANEOUS TISSUE DISORDERS","PRURITUS","PRURITUS","MILD","N",30,76
"01-710-1045","Xanomeline Low Dose",5,"INFECTIONS AND INFESTATIONS","NASOPHARYNGITIS","NASOPHARYNGITIS","MILD","N",30,37
"01-710-1045","Xanomeline Low Dose",9,"SKIN AND SUBCUTANEOUS TISSUE DISORDERS","SKIN IRRITATION","SKIN IRRITATION","MILD","N",30,76
"01-710-1045","Xanomeline Low Dose",10,"SKIN AND SUBCUTANEOUS TISSUE DISORDERS","PRURITUS","PRURITUS","MILD","N",30,76
"01-710-1045","Xanomeline Low Dose",6,"SKIN AND SUBCUTANEOUS TISSUE DISORDERS","RASH","RASH","MILD","N",50,76
"01-710-1045","Xanomeline Low Dose",11,"SKIN AND SUBCUTANEOUS TISSUE DISORDERS","RASH","RASH","MILD","N",50,76
"01-710-1045","Xanomeline Low Dose",7,"SKIN AND SUBCUTANEOUS TISSUE DISORDERS","ERYTHEMA","ERYTHEMA","MILD","N",62,76
"01-710-1045","Xanomeline Low Dose",12,"SKIN AND SUBCUTANEOUS TISSUE DISORDERS","ERYTHEMA","ERYTHEMA","MILD","N",62,76
"01-710-1053","Xanomeline Low Dose",1,"SKIN AND SUBCUTANEOUS TISSUE DISORDERS","PRURITUS","PRURITUS","MODERATE","N",34,48
"01-710-1053","Xanomeline Low Dose",2,"SKIN AND SUBCUTANEOUS TISSUE DISORDERS","RASH","RASH","MODERATE","N",34,48
"01-710-1053","Xanomeline Low Dose",3,"SKIN AND SUBCUTANEOUS TISSUE DISORDERS","PRURITUS","PRURITUS","MODERATE","N",34,48
"01-710-1053","Xanomeline Low Dose",4,"SKIN AND SUBCUTANEOUS TISSUE DISORDERS","RASH","RASH","MODERATE","N",34,48
"01-710-1060","Placebo",1,"RESPIRATORY, THORACIC AND MEDIASTINAL DISORDERS","NASAL CONGESTION","NASAL CONGESTION","MILD","N",2,2
"01-710-1060","Placebo",2,"PSYCHIATRIC DISORDERS","INSOMNIA","INSOMNIA","MILD","N",4,15
"01-710-1060","Placebo",3,"PSYCHIATRIC DISORDERS","INSOMNIA","INSOMNIA","MILD","N",4,15
"01-710-1060","Placebo",4,"GENERAL DISORDERS AND ADMINISTRATION SITE CONDITIONS","APPLICATION SITE INDURATION","APPLICATION SITE INDURATION","MILD","N",21,21
"01-710-1060","Placebo",5,"GENERAL DISORDERS AND ADMINISTRATION SITE CONDITIONS","APPLICATION SITE PRURITUS","APPLICATION SITE PRURITUS","MILD","N",23,23
"01-710-1060","Placebo",6,"GENERAL DISORDERS AND ADMINISTRATION SITE CONDITIONS","APPLICATION SITE PRURITUS","APPLICATION SITE PRURITUS","MILD","N",31,31
"01-710-1060","Placebo",7,"INJURY, POISONING AND PROCEDURAL COMPLICATIONS","FALL","FALL","MILD","N",39,39
"01-710-1060","Placebo",8,"INJURY, POISONING AND PROCEDURAL COMPLICATIONS","FALL","FALL","MILD","N",40,40
"01-710-1070","Xanomeline High Dose",5,"INJURY, POISONING AND PROCEDURAL COMPLICATIONS","HIP FRACTURE","HIP FRACTURE","SEVERE","N",137,140
"01-710-1070","Xanomeline High Dose",6,"GASTROINTESTINAL DISORDERS","GASTROINTESTINAL HAEMORRHAGE","GASTROINTESTINAL HAEMORRHAGE","SEVERE","N",151,156
"01-710-1070","Xanomeline High Dose",1,"CARDIAC DISORDERS","SUPRAVENTRICULAR EXTRASYSTOLES","SUPRAVENTRICULAR EXTRASYSTOLES","MILD","N",29,
"01-710-1070","Xanomeline High Dose",2,"SKIN AND SUBCUTANEOUS TISSUE DISORDERS","PRURITUS","PRURITUS","MILD","N",96,
"01-710-1070","Xanomeline High Dose",3,"SKIN AND SUBCUTANEOUS TISSUE DISORDERS","ERYTHEMA","ERYTHEMA","MILD","N",96,
"01-710-1070","Xanomeline High Dose",4,"SKIN AND SUBCUTANEOUS TISSUE DISORDERS","RASH","RASH","MILD","N",96,
"01-710-1077","Placebo",1,"GENERAL DISORDERS AND ADMINISTRATION SITE CONDITIONS","APPLICATION SITE DERMATITIS","APPLICATION SITE DERMATITIS","MILD","N",26,26
"01-710-1077","Placebo",2,"SKIN AND SUBCUTANEOUS TISSUE DISORDERS","SKIN IRRITATION","SKIN IRRITATION","MILD","N",41,
"01-710-1077","Placebo",3,"PSYCHIATRIC DISORDERS","AGITATION","AGITATION","MILD","N",57,
"01-710-1083","Placebo",1,"CARDIAC DISORDERS","MYOCARDIAL INFARCTION","MYOCARDIAL INFARCTION","SEVERE","N",12,12
"01-710-1137","Xanomeline High Dose",3,"EAR AND LABYRINTH DISORDERS","VERTIGO","VERTIGO","MODERATE","N",25,
"01-710-1137","Xanomeline High Dose",1,"SKIN AND SUBCUTANEOUS TISSUE DISORDERS","PRURITUS","PRURITUS","MILD","N",3,
"01-710-1137","Xanomeline High Dose",2,"SKIN AND SUBCUTANEOUS TISSUE DISORDERS","ERYTHEMA","ERYTHEMA","MILD","N",3,
"01-710-1137","Xanomeline High Dose",4,"NERVOUS SYSTEM DISORDERS","HEADACHE","HEADACHE","MILD","N",34,
"01-710-1142","Xanomeline High Dose",1,"NERVOUS SYSTEM DISORDERS","DIZZINESS","DIZZINESS","MODERATE","N",3,5
"01-710-1142","Xanomeline High Dose",4,"CARDIAC DISORDERS","MYOCARDIAL INFARCTION","MYOCARDIAL INFARCTION","MODERATE","N",18,18
"01-710-1142","Xanomeline High Dose",5,"NERVOUS SYSTEM DISORDERS","SYNCOPE VASOVAGAL","SYNCOPE VASOVAGAL","MODERATE","N",18,18
"01-710-1142","Xanomeline High Dose",2,"NERVOUS SYSTEM DISORDERS","HEADACHE","HEADACHE","MILD","N",3,5
"01-710-1142","Xanomeline High Dose",3,"GASTROINTESTINAL DISORDERS","NAUSEA","NAUSEA","MILD","N",13,13
"01-710-1154","Xanomeline Low Dose",2,"SKIN AND SUBCUTANEOUS TISSUE DISORDERS","SKIN IRRITATION","SKIN IRRITATION","SEVERE","N",21,
"01-710-1154","Xanomeline Low Dose",1,"SKIN AND SUBCUTANEOUS TISSUE DISORDERS","SKIN IRRITATION","SKIN IRRITATION","MODERATE","N",21,
"01-710-1166","Xanomeline Low Dose",1,"INJURY, POISONING AND PROCEDURAL COMPLICATIONS","FALL","FALL","MODERATE","N",110,110
"01-710-1166","Xanomeline Low Dose",2,"INJURY, POISONING AND PROCEDURAL COMPLICATIONS","SKIN LACERATION","SKIN LACERATION","MODERATE","N",110,110
"01-710-1166","Xanomeline Low Dose",3,"NERVOUS SYSTEM DISORDERS","SYNCOPE","SYNCOPE","MODERATE","N",110,110
"01-710-1166","Xanomeline Low Dose",4,"NERVOUS SYSTEM DISORDERS","COMPLEX PARTIAL SEIZURES","COMPLEX PARTIAL SEIZURES","MODERATE","N",110,111
"01-710-1166","Xanomeline Low Dose",5,"NERVOUS SYSTEM DISORDERS","SYNCOPE","SYNCOPE","MODERATE","N",111,111
"01-710-1183","Placebo",1,"CARDIAC DISORDERS","SINUS BRADYCARDIA","SINUS BRADYCARDIA","MODERATE","N",115,
"01-710-1183","Placebo",2,"CARDIAC DISORDERS","ATRIOVENTRICULAR BLOCK FIRST DEGREE","ATRIOVENTRICULAR BLOCK FIRST DEGREE","MILD","N",115,
"01-710-1187","Xanomeline High Dose",1,"GENERAL DISORDERS AND ADMINISTRATION SITE CONDITIONS","APPLICATION SITE IRRITATION","APPLICATION SITE IRRITATION","MILD","N",44,
"01-710-1235","Xanomeline Low Dose",1,"RESPIRATORY, THORACIC AND MEDIASTINAL DISORDERS","COUGH","COUGH","MODERATE","N",58,80
"01-710-1235","Xanomeline Low Dose",2,"MUSCULOSKELETAL AND CONNECTIVE TISSUE DISORDERS","SHOULDER PAIN","SHOULDER PAIN","MILD","N",110,
"01-710-1235","Xanomeline Low Dose",3,"GENERAL DISORDERS AND ADMINISTRATION SITE CONDITIONS","APPLICATION SITE PRURITUS","APPLICATION SITE PRURITUS","MILD","N",126,
"01-710-1249","Xanomeline High Dose",4,"SKIN AND SUBCUTANEOUS TISSUE DISORDERS","PRURITUS","PRURITUS","MODERATE","N",118,
"01-710-1249","Xanomeline High Dose",1,"SKIN AND SUBCUTANEOUS TISSUE DISORDERS","PRURITUS","PRURITUS","MILD","N",46,46
"01-710-1249","Xanomeline High Dose",2,"SKIN AND SUBCUTANEOUS TISSUE DISORDERS","PRURITUS","PRURITUS","MILD","N",53,53
"01-710-1249","Xanomeline High Dose",3,"SKIN AND SUBCUTANEOUS TISSUE DISORDERS","ERYTHEMA","ERYTHEMA","MILD","N",58,
"01-710-1264","Placebo",4,"SKIN AND SUBCUTANEOUS TISSUE DISORDERS","COLD SWEAT","COLD SWEAT","MODERATE","N",109,109
"01-710-1264","Placebo",5,"GENERAL DISORDERS AND ADMINISTRATION SITE CONDITIONS","CHILLS","CHILLS","MODERATE","N",109,109
"01-710-1264","Placebo",6,"SKIN AND SUBCUTANEOUS TISSUE DISORDERS","COLD SWEAT","COLD SWEAT","MODERATE","N",119,119
"01-710-1264","Placebo",7,"GENERAL DISORDERS AND ADMINISTRATION SITE CONDITIONS","CHILLS","CHILLS","MODERATE","N",119,119
"01-710-1264","Placebo",8,"SKIN AND SUBCUTANEOUS TISSUE DISORDERS","COLD SWEAT","COLD SWEAT","MODERATE","N",121,121
"01-710-1264","Placebo",9,"GENERAL DISORDERS AND ADMINISTRATION SITE CONDITIONS","CHILLS","CHILLS","MODERATE","N",121,121
"01-710-1264","Placebo",1,"GASTROINTESTINAL DISORDERS","DIARRHOEA","DIARRHOEA","MILD","N",21,23
"01-710-1264","Placebo",2,"SKIN AND SUBCUTANEOUS TISSUE DISORDERS","PRURITUS","PRURITUS","MILD","N",70,
"01-710-1264","Placebo",3,"SKIN AND SUBCUTANEOUS TISSUE DISORDERS","RASH","RASH","MILD","N",70,
"01-710-1270","Xanomeline Low Dose",1,"SKIN AND SUBCUTANEOUS TISSUE DISORDERS","ERYTHEMA","ERYTHEMA","MODERATE","N",12,
"01-710-1270","Xanomeline Low Dose",2,"SKIN AND SUBCUTANEOUS TISSUE DISORDERS","PRURITUS","PRURITUS","MODERATE","N",12,
"01-710-1271","Placebo",2,"CARDIAC DISORDERS","MYOCARDIAL INFARCTION","MYOCARDIAL INFARCTION","SEVERE","N",56,56
"01-710-1271","Placebo",1,"RESPIRATORY, THORACIC AND MEDIASTINAL DISORDERS","DYSPNOEA","DYSPNOEA","MODERATE","N",56,56
"01-710-1271","Placebo",3,"CARDIAC DISORDERS","ATRIAL FIBRILLATION","ATRIAL FIBRILLATION","MODERATE","N",56,61
"01-710-1271","Placebo",4,"CARDIAC DISORDERS","CARDIAC FAILURE CONGESTIVE","CARDIAC FAILURE CONGESTIVE","MODERATE","N",57,
"01-710-1271","Placebo",5,"METABOLISM AND NUTRITION DISORDERS","HYPONATRAEMIA","HYPONATRAEMIA","MODERATE","N",57,61
"01-710-1278","Xanomeline High Dose",4,"NERVOUS SYSTEM DISORDERS","BURNING SENSATION","BURNING SENSATION","MODERATE","N",63,65
"01-710-1278","Xanomeline High Dose",1,"NERVOUS SYSTEM DISORDERS","SOMNOLENCE","SOMNOLENCE","MILD","N",21,27
"01-710-1278","Xanomeline High Dose",2,"SKIN AND SUBCUTANEOUS TISSUE DISORDERS","RASH","RASH","MILD","N",46,70
"01-710-1278","Xanomeline High Dose",6,"SKIN AND SUBCUTANEOUS TISSUE DISORDERS","RASH","RASH","MILD","N",46,70
"01-710-1278","Xanomeline High Dose",3,"GENERAL DISORDERS AND ADMINISTRATION SITE CONDITIONS","APPLICATION SITE ERYTHEMA","APPLICATION SITE ERYTHEMA","MILD","N",63,70
"01-710-1278","Xanomeline High Dose",7,"GENERAL DISORDERS AND ADMINISTRATION SITE CONDITIONS","APPLICATION SITE ERYTHEMA","APPLICATION SITE ERYTHEMA","MILD","N",63,70
"01-710-1278","Xanomeline High Dose",5,"GASTROINTESTINAL DISORDERS","VOMITING","VOMITING","MILD","N",69,69
"01-710-1300","Xanomeline Low Dose",1,"SKIN AND SUBCUTANEOUS TISSUE DISORDERS","PRURITUS","PRURITUS","MODERATE","N",48,
"01-710-1300","Xanomeline Low Dose",2,"SKIN AND SUBCUTANEOUS TISSUE DISORDERS","ERYTHEMA","ERYTHEMA","MODERATE","N",58,
"01-710-1300","Xanomeline Low Dose",3,"SKIN AND SUBCUTANEOUS TISSUE DISORDERS","BLISTER","BLISTER","MODERATE","N",58,
"01-710-1300","Xanomeline Low Dose",4,"GENERAL DISORDERS AND ADMINISTRATION SITE CONDITIONS","APPLICATION SITE IRRITATION","APPLICATION SITE IRRITATION","MILD","N",61,
"01-710-1314","Placebo",1,"INFECTIONS AND INFESTATIONS","NASOPHARYNGITIS","NASOPHARYNGITIS","MILD","N",27,31
"01-710-1314","Placebo",2,"INFECTIONS AND INFESTATIONS","NASOPHARYNGITIS","NASOPHARYNGITIS","MILD","N",27,31
"01-710-1315","Placebo",3,"SKIN AND SUBCUTANEOUS TISSUE DISORDERS","RASH","RASH","MODERATE","N",112,131
"01-710-1315","Placebo",4,"SKIN AND SUBCUTANEOUS TISSUE DISORDERS","ERYTHEMA","ERYTHEMA","MODERATE","N",112,131
"01-710-1315","Placebo",6,"SKIN AND SUBCUTANEOUS TISSUE DISORDERS","RASH","RASH","MODERATE","N",112,131
"01-710-1315","Placebo",7,"SKIN AND SUBCUTANEOUS TISSUE DISORDERS","ERYTHEMA","ERYTHEMA","MODERATE","N",112,131
"01-710-1315","Placebo",2,"SKIN AND SUBCUTANEOUS TISSUE DISORDERS","PRURITUS","PRURITUS","MILD","N",77,131
"01-710-1315","Placebo",5,"SKIN AND SUBCUTANEOUS TISSUE DISORDERS","PRURITUS","PRURITUS","MILD","N",77,131
"01-710-1354","Xanomeline High Dose",1,"SKIN AND SUBCUTANEOUS TISSUE DISORDERS","ERYTHEMA","ERYTHEMA","MILD","N",50,
"01-710-1354","Xanomeline High Dose",2,"SKIN AND SUBCUTANEOUS TISSUE DISORDERS","PRURITUS","PRURITUS","MILD","N",96,
"01-710-1358","Xanomeline Low Dose",1,"SKIN AND SUBCUTANEOUS TISSUE DISORDERS","RASH","RASH","MILD","N",97,
"01-710-1358","Xanomeline Low Dose",2,"SKIN AND SUBCUTANEOUS TISSUE DISORDERS","PRURITUS","PRURITUS","MILD","N",97,
"01-710-1358","Xanomeline Low Dose",3,"GENERAL DISORDERS AND ADMINISTRATION SITE CONDITIONS","APPLICATION SITE DESQUAMATION","APPLICATION SITE DESQUAMATION","MILD","N",130,
"01-710-1368","Placebo",1,"INJURY, POISONING AND PROCEDURAL COMPLICATIONS","HIP FRACTURE","HIP FRACTURE","SEVERE","N",64,184
"01-710-1368","Placebo",4,"INJURY, POISONING AND PROCEDURAL COMPLICATIONS","HIP FRACTURE","HIP FRACTURE","SEVERE","N",64,184
"01-710-1368","Placebo",2,"PSYCHIATRIC DISORDERS","DELUSION","DELUSION","MILD","N",155,
"01-710-1368","Placebo",3,"NERVOUS SYSTEM DISORDERS","PSYCHOMOTOR HYPERACTIVITY","PSYCHOMOTOR HYPERACTIVITY","MILD","N",155,
"01-710-1385","Xanomeline Low Dose",1,"CARDIAC DISORDERS","SUPRAVENTRICULAR TACHYCARDIA","SUPRAVENTRICULAR TACHYCARDIA","MODERATE","N",15,16
"01-710-1385","Xanomeline Low Dose",2,"CARDIAC DISORDERS","SUPRAVENTRICULAR TACHYCARDIA","SUPRAVENTRICULAR TACHYCARDIA","MODERATE","N",15,16
"01-710-1385","Xanomeline Low Dose",7,"CARDIAC DISORDERS","ATRIAL FIBRILLATION","ATRIAL FIBRILLATION","MODERATE","N",113,
"01-710-1385","Xanomeline Low Dose",3,"CARDIAC DISORDERS","ATRIOVENTRICULAR BLOCK FIRST DEGREE","ATRIOVENTRICULAR BLOCK FIRST DEGREE","MILD","N",29,
"01-710-1385","Xanomeline Low Dose",4,"SKIN AND SUBCUTANEOUS TISSUE DISORDERS","PRURITUS","PRURITUS","MILD","N",51,
"01-710-1385","Xanomeline Low Dose",5,"SKIN AND SUBCUTANEOUS TISSUE DISORDERS","RASH","RASH","MILD","N",60,
"01-710-1385","Xanomeline Low Dose",6,"SKIN AND SUBCUTANEOUS TISSUE DISORDERS","BLISTER","BLISTER","MILD","N",60,
"01-710-1385","Xanomeline Low Dose",8,"INVESTIGATIONS","ELECTROCARDIOGRAM T WAVE AMPLITUDE DECREASED","ELECTROCARDIOGRAM T WAVE AMPLITUDE DECREASED","MILD","N",113,
"01-710-1408","Xanomeline High Dose",1,"INFECTIONS AND INFESTATIONS","NASOPHARYNGITIS","NASOPHARYNGITIS","MILD","N",27,36
"01-710-1408","Xanomeline High Dose",2,"INFECTIONS AND INFESTATIONS","NASOPHARYNGITIS","NASOPHARYNGITIS","MILD","N",27,36
"01-710-1408","Xanomeline High Dose",3,"SKIN AND SUBCUTANEOUS TISSUE DISORDERS","ERYTHEMA","ERYTHEMA","MILD","N",51,147
"01-710-1408","Xanomeline High Dose",4,"SKIN AND SUBCUTANEOUS TISSUE DISORDERS","ERYTHEMA","ERYTHEMA","MILD","N",51,147
"01-711-1012","Xanomeline High Dose",3,"GENERAL DISORDERS AND ADMINISTRATION SITE CONDITIONS","APPLICATION SITE DERMATITIS","APPLICATION SITE DERMATITIS","MODERATE","N",14,
"01-711-1012","Xanomeline High Dose",4,"GENERAL DISORDERS AND ADMINISTRATION SITE CONDITIONS","APPLICATION SITE PRURITUS","APPLICATION SITE PRURITUS","MODERATE","N",14,30
"01-711-1012","Xanomeline High Dose",7,"GENERAL DISORDERS AND ADMINISTRATION SITE CONDITIONS","APPLICATION SITE PRURITUS","APPLICATION SITE PRURITUS","MODERATE","N",14,30
"01-711-1012","Xanomeline High Dose",5,"INFECTIONS AND INFESTATIONS","NASOPHARYNGITIS","NASOPHARYNGITIS","MODERATE","N",25,
"01-711-1012","Xanomeline High Dose",6,"GENERAL DISORDERS AND ADMINISTRATION SITE CONDITIONS","APPLICATION SITE URTICARIA","APPLICATION SITE URTICARIA","MODERATE","N",27,29
"01-711-1012","Xanomeline High Dose",1,"GENERAL DISORDERS AND ADMINISTRATION SITE CONDITIONS","APPLICATION SITE DERMATITIS","APPLICATION SITE DERMATITIS","MILD","N",14,
"01-711-1012","Xanomeline High Dose",2,"GENERAL DISORDERS AND ADMINISTRATION SITE CONDITIONS","APPLICATION SITE PRURITUS","APPLICATION SITE PRURITUS","MILD","N",14,30
"01-711-1036","Placebo",1,"NERVOUS SYSTEM DISORDERS","HEADACHE","HEADACHE","MILD","N",1,
"01-711-1036","Placebo",2,"INFECTIONS AND INFESTATIONS","EAR INFECTION","EAR INFECTION","MILD","N",7,15
"01-711-1036","Placebo",4,"INFECTIONS AND INFESTATIONS","EAR INFECTION","EAR INFECTION","MILD","N",7,15
"01-711-1036","Placebo",3,"GASTROINTESTINAL DISORDERS","GLOSSITIS","GLOSSITIS","MILD","N",15,
"01-711-1143","Xanomeline Low Dose",3,"INFECTIONS AND INFESTATIONS","NASOPHARYNGITIS","NASOPHARYNGITIS","SEVERE","N",26,39
"01-711-1143","Xanomeline Low Dose",8,"GENERAL DISORDERS AND ADMINISTRATION SITE CONDITIONS","APPLICATION SITE DERMATITIS","APPLICATION SITE DERMATITIS","MODERATE","N",46,
"01-711-1143","Xanomeline Low Dose",9,"SKIN AND SUBCUTANEOUS TISSUE DISORDERS","RASH PRURITIC","RASH PRURITIC","MODERATE","N",55,59
"01-711-1143","Xanomeline Low Dose",11,"SKIN AND SUBCUTANEOUS TISSUE DISORDERS","RASH PRURITIC","RASH PRURITIC","MODERATE","N",55,59
"01-711-1143","Xanomeline Low Dose",10,"CARDIAC DISORDERS","VENTRICULAR EXTRASYSTOLES","VENTRICULAR EXTRASYSTOLES","MODERATE","N",56,60
"01-711-1143","Xanomeline Low Dose",14,"CARDIAC DISORDERS","VENTRICULAR EXTRASYSTOLES","VENTRICULAR EXTRASYSTOLES","MODERATE","N",56,60
"01-711-1143","Xanomeline Low Dose",12,"EYE DISORDERS","CONJUNCTIVAL HAEMORRHAGE","CONJUNCTIVAL HAEMORRHAGE","MODERATE","N",58,
"01-711-1143","Xanomeline Low Dose",2,"NERVOUS SYSTEM DISORDERS","PARAESTHESIA ORAL","PARAESTHESIA ORAL","MILD","N",9,
"01-711-1143","Xanomeline Low Dose",5,"INFECTIONS AND INFESTATIONS","NASOPHARYNGITIS","NASOPHARYNGITIS","MILD","N",26,39
"01-711-1143","Xanomeline Low Dose",6,"INFECTIONS AND INFESTATIONS","NASOPHARYNGITIS","NASOPHARYNGITIS","MILD","N",26,39
"01-711-1143","Xanomeline Low Dose",4,"CARDIAC DISORDERS","SUPRAVENTRICULAR EXTRASYSTOLES","SUPRAVENTRICULAR EXTRASYSTOLES","MILD","N",27,43
"01-711-1143","Xanomeline Low Dose",7,"CARDIAC DISORDERS","SUPRAVENTRICULAR EXTRASYSTOLES","SUPRAVENTRICULAR EXTRASYSTOLES","MILD","N",27,43
"01-711-1143","Xanomeline Low Dose",13,"EAR AND LABYRINTH DISORDERS","CERUMEN IMPACTION","CERUMEN IMPACTION","MILD","N",60,
"01-711-1433","Xanomeline High Dose",3,"GENERAL DISORDERS AND ADMINISTRATION SITE CONDITIONS","ASTHENIA","ASTHENIA","MODERATE","N",10,
"01-713-1043","Xanomeline Low Dose",4,"GENERAL DISORDERS AND ADMINISTRATION SITE CONDITIONS","APPLICATION SITE ERYTHEMA","APPLICATION SITE ERYTHEMA","MODERATE","N",12,
"01-713-1043","Xanomeline Low Dose",2,"GASTROINTESTINAL DISORDERS","NAUSEA","NAUSEA","MODERATE","N",27,27
"01-713-1043","Xanomeline Low Dose",3,"GASTROINTESTINAL DISORDERS","VOMITING","VOMITING","MODERATE","N",27,27
"01-713-1043","Xanomeline Low Dose",5,"GASTROINTESTINAL DISORDERS","NAUSEA","NAUSEA","MODERATE","N",27,27
"01-713-1043","Xanomeline Low Dose",6,"GASTROINTESTINAL DISORDERS","VOMITING","VOMITING","MODERATE","N",27,27
"01-713-1043","Xanomeline Low Dose",1,"GENERAL DISORDERS AND ADMINISTRATION SITE CONDITIONS","APPLICATION SITE ERYTHEMA","APPLICATION SITE ERYTHEMA","MILD","N",12,
"01-713-1043","Xanomeline Low Dose",7,"SURGICAL AND MEDICAL PROCEDURES","CATARACT OPERATION","CATARACT OPERATION","MILD","N",175,175
"01-713-1073","Xanomeline Low Dose",1,"GENERAL DISORDERS AND ADMINISTRATION SITE CONDITIONS","APPLICATION SITE PRURITUS","APPLICATION SITE PRURITUS","MILD","N",107,
"01-713-1141","Xanomeline High Dose",3,"MUSCULOSKELETAL AND CONNECTIVE TISSUE DISORDERS","BACK PAIN","BACK PAIN","MODERATE","N",31,
"01-713-1141","Xanomeline High Dose",4,"PSYCHIATRIC DISORDERS","DELIRIUM","DELIRIUM","MODERATE","N",32,46
"01-713-1141","Xanomeline High Dose",1,"SKIN AND SUBCUTANEOUS TISSUE DISORDERS","RASH PRURITIC","RASH PRURITIC","MILD","N",22,46
"01-713-1141","Xanomeline High Dose",2,"SKIN AND SUBCUTANEOUS TISSUE DISORDERS","RASH PRURITIC","RASH PRURITIC","MILD","N",22,46
"01-713-1179","Placebo",4,"GENERAL DISORDERS AND ADMINISTRATION SITE CONDITIONS","ASTHENIA","ASTHENIA","MODERATE","N",28,
"01-713-1179","Placebo",9,"INFECTIONS AND INFESTATIONS","GASTROENTERITIS VIRAL","GASTROENTERITIS VIRAL","MODERATE","N",63,66
"01-713-1179","Placebo",1,"RENAL AND URINARY DISORDERS","DYSURIA","DYSURIA","MILD","N",11,15
"01-713-1179","Placebo",2,"GASTROINTESTINAL DISORDERS","DYSPEPSIA","DYSPEPSIA","MILD","N",14,14
"01-713-1179","Placebo",3,"INFECTIONS AND INFESTATIONS","URINARY TRACT INFECTION","URINARY TRACT INFECTION","MILD","N",20,31
"01-713-1179","Placebo",5,"INFECTIONS AND INFESTATIONS","URINARY TRACT INFECTION","URINARY TRACT INFECTION","MILD","N",20,31
"01-713-1179","Placebo",6,"GENERAL DISORDERS AND ADMINISTRATION SITE CONDITIONS","ASTHENIA","ASTHENIA","MILD","N",28,
"01-713-1179","Placebo",7,"GASTROINTESTINAL DISORDERS","DYSPEPSIA","DYSPEPSIA","MILD","N",35,
"01-713-1179","Placebo",8,"REPRODUCTIVE SYSTEM AND BREAST DISORDERS","PELVIC PAIN","PELVIC PAIN","MILD","N",63,163
"01-713-1179","Placebo",10,"GASTROINTESTINAL DISORDERS","GASTROOESOPHAGEAL REFLUX DISEASE","GASTROOESOPHAGEAL REFLUX DISEASE","MILD","N",63,
"01-713-1179","Placebo",15,"REPRODUCTIVE SYSTEM AND BREAST DISORDERS","PELVIC PAIN","PELVIC PAIN","MILD","N",63,163
"01-713-1179","Placebo",11,"INFECTIONS AND INFESTATIONS","VAGINAL MYCOSIS","VAGINAL MYCOSIS","MILD","N",107,116
"01-713-1179","Placebo",12,"INFECTIONS AND INFESTATIONS","CERVICITIS","CERVICITIS","MILD","N",107,116
"01-713-1179","Placebo",13,"INFECTIONS AND INFESTATIONS","VAGINAL MYCOSIS","VAGINAL MYCOSIS","MILD","N",107,116
"01-713-1179","Placebo",14,"INFECTIONS AND INFESTATIONS","CERVICITIS","CERVICITIS","MILD","N",107,116
"01-713-1209","Xanomeline High Dose",3,"GASTROINTESTINAL DISORDERS","ABDOMINAL PAIN","ABDOMINAL PAIN","MODERATE","N",4,
"01-713-1209","Xanomeline High Dose",1,"GASTROINTESTINAL DISORDERS","ABDOMINAL PAIN","ABDOMINAL PAIN","MILD","N",4,
"01-713-1209","Xanomeline High Dose",2,"GENERAL DISORDERS AND ADMINISTRATION SITE CONDITIONS","APPLICATION SITE PRURITUS","APPLICATION SITE PRURITUS","MILD","N",7,
"01-713-1209","Xanomeline High Dose",4,"NERVOUS SYSTEM DISORDERS","DIZZINESS","DIZZINESS","MILD","N",158,
"01-713-1256","Placebo",1,"GENERAL DISORDERS AND ADMINISTRATION SITE CONDITIONS","APPLICATION SITE DERMATITIS","APPLICATION SITE DERMATITIS","MILD","N",42,43
"01-713-1256","Placebo",2,"GENERAL DISORDERS AND ADMINISTRATION SITE CONDITIONS","APPLICATION SITE DERMATITIS","APPLICATION SITE DERMATITIS","MILD","N",42,43
"01-713-1269","Placebo",5,"MUSCULOSKELETAL AND CONNECTIVE TISSUE DISORDERS","SHOULDER PAIN","SHOULDER PAIN","MODERATE","N",126,
"01-713-1269","Placebo",4,"SKIN AND SUBCUTANEOUS TISSUE DISORDERS","RASH","RASH","MODERATE","N",165,
"01-713-1269","Placebo",1,"GENERAL DISORDERS AND ADMINISTRATION SITE CONDITIONS","APPLICATION SITE ERYTHEMA","APPLICATION SITE ERYTHEMA","MILD","N",7,
"01-713-1269","Placebo",2,"RESPIRATORY, THORACIC AND MEDIASTINAL DISORDERS","COUGH","COUGH","MILD","N",82,
"01-713-1269","Placebo",3,"MUSCULOSKELETAL AND CONNECTIVE TISSUE DISORDERS","SHOULDER PAIN","SHOULDER PAIN","MILD","N",126,
"01-713-1269","Placebo",6,"SKIN AND SUBCUTANEOUS TISSUE DISORDERS","RASH","RASH","MILD","N",165,
"01-713-1448","Xanomeline Low Dose",1,"GENERAL DISORDERS AND ADMINISTRATION SITE CONDITIONS","APPLICATION SITE IRRITATION","APPLICATION SITE IRRITATION","MODERATE","N",60,125
"01-713-1448","Xanomeline Low Dose",3,"GENERAL DISORDERS AND ADMINISTRATION SITE CONDITIONS","APPLICATION SITE IRRITATION","APPLICATION SITE IRRITATION","MODERATE","N",60,125
"01-713-1448","Xanomeline Low Dose",2,"GASTROINTESTINAL DISORDERS","NAUSEA","NAUSEA","MILD","N",68,125
"01-713-1448","Xanomeline Low Dose",4,"GASTROINTESTINAL DISORDERS","NAUSEA","NAUSEA","MILD","N",68,125
"01-714-1035","Placebo",7,"INFECTIONS AND INFESTATIONS","BRONCHITIS","BRONCHITIS","MODERATE","N",93,99
"01-714-1035","Placebo",1,"CARDIAC DISORDERS","BUNDLE BRANCH BLOCK RIGHT","BUNDLE BRANCH BLOCK RIGHT","MILD","N",40,49
"01-714-1035","Placebo",2,"INVESTIGATIONS","ELECTROCARDIOGRAM T WAVE INVERSION","ELECTROCARDIOGRAM T WAVE INVERSION","MILD","N",40,
"01-714-1035","Placebo",5,"CARDIAC DISORDERS","BUNDLE BRANCH BLOCK RIGHT","BUNDLE BRANCH BLOCK RIGHT","MILD","N",40,49
"01-714-1035","Placebo",3,"CARDIAC DISORDERS","SUPRAVENTRICULAR EXTRASYSTOLES","SUPRAVENTRICULAR EXTRASYSTOLES","MILD","N",49,62
"01-714-1035","Placebo",4,"INVESTIGATIONS","ELECTROCARDIOGRAM ST SEGMENT DEPRESSION","ELECTROCARDIOGRAM ST SEGMENT DEPRESSION","MILD","N",49,
"01-714-1035","Placebo",6,"CARDIAC DISORDERS","SUPRAVENTRICULAR EXTRASYSTOLES","SUPRAVENTRICULAR EXTRASYSTOLES","MILD","N",49,62
"01-714-1068","Xanomeline Low Dose",1,"SKIN AND SUBCUTANEOUS TISSUE DISORDERS","SKIN IRRITATION","SKIN IRRITATION","MODERATE","N",5,15
"01-714-1068","Xanomeline Low Dose",2,"SKIN AND SUBCUTANEOUS TISSUE DISORDERS","SKIN IRRITATION","SKIN IRRITATION","MODERATE","N",5,15
"01-714-1068","Xanomeline Low Dose",3,"GENERAL DISORDERS AND ADMINISTRATION SITE CONDITIONS","APPLICATION SITE ERYTHEMA","APPLICATION SITE ERYTHEMA","MODERATE","N",44,
"01-714-1068","Xanomeline Low Dose",4,"GENERAL DISORDERS AND ADMINISTRATION SITE CONDITIONS","APPLICATION SITE PRURITUS","APPLICATION SITE PRURITUS","MODERATE","N",44,
"01-714-1068","Xanomeline Low Dose",5,"GENERAL DISORDERS AND ADMINISTRATION SITE CONDITIONS","APPLICATION SITE ERYTHEMA","APPLICATION SITE ERYTHEMA","MILD","N",44,
"01-714-1068","Xanomeline Low Dose",6,"GENERAL DISORDERS AND ADMINISTRATION SITE CONDITIONS","APPLICATION SITE PRURITUS","APPLICATION SITE PRURITUS","MILD","N",44,
"01-714-1195","Xanomeline Low Dose",3,"GENERAL DISORDERS AND ADMINISTRATION SITE CONDITIONS","APPLICATION SITE ERYTHEMA","APPLICATION SITE ERYTHEMA","SEVERE","N",18,83
"01-714-1195","Xanomeline Low Dose",8,"GENERAL DISORDERS AND ADMINISTRATION SITE CONDITIONS","APPLICATION SITE ERYTHEMA","APPLICATION SITE ERYTHEMA","SEVERE","N",18,83
"01-714-1195","Xanomeline Low Dose",2,"SKIN AND SUBCUTANEOUS TISSUE DISORDERS","HYPERHIDROSIS","HYPERHIDROSIS","MODERATE","N",17,83
"01-714-1195","Xanomeline Low Dose",7,"SKIN AND SUBCUTANEOUS TISSUE DISORDERS","HYPERHIDROSIS","HYPERHIDROSIS","MODERATE","N",17,83
"01-714-1195","Xanomeline Low Dose",1,"GASTROINTESTINAL DISORDERS","DIARRHOEA","DIARRHOEA","MILD","N",17,83
"01-714-1195","Xanomeline Low Dose",6,"GASTROINTESTINAL DISORDERS","DIARRHOEA","DIARRHOEA","MILD","N",17,83
"01-714-1195","Xanomeline Low Dose",4,"NERVOUS SYSTEM DISORDERS","SOMNOLENCE","SOMNOLENCE","MILD","N",19,
"01-714-1195","Xanomeline Low Dose",5,"GENERAL DISORDERS AND ADMINISTRATION SITE CONDITIONS","APPLICATION SITE PRURITUS","APPLICATION SITE PRURITUS","MILD","N",22,
"01-714-1195","Xanomeline Low Dose",9,"RENAL AND URINARY DISORDERS","DYSURIA","DYSURIA","MILD","N",91,103
"01-714-1288","Xanomeline High Dose",7,"MUSCULOSKELETAL AND CONNECTIVE TISSUE DISORDERS","ARTHRALGIA","ARTHRALGIA","MODERATE","N",95,
"01-714-1288","Xanomeline High Dose",9,"CARDIAC DISORDERS","SINUS BRADYCARDIA","SINUS BRADYCARDIA","MODERATE","N",175,
"01-714-1288","Xanomeline High Dose",1,"NERVOUS SYSTEM DISORDERS","DIZZINESS","DIZZINESS","MILD","N",10,10
"01-714-1288","Xanomeline High Dose",2,"GASTROINTESTINAL DISORDERS","DIARRHOEA","DIARRHOEA","MILD","N",11,12
"01-714-1288","Xanomeline High Dose",3,"SKIN AND SUBCUTANEOUS TISSUE DISORDERS","ERYTHEMA","ERYTHEMA","MILD","N",39,
"01-714-1288","Xanomeline High Dose",4,"INFECTIONS AND INFESTATIONS","NASOPHARYNGITIS","NASOPHARYNGITIS","MILD","N",50,53
"01-714-1288","Xanomeline High Dose",5,"RESPIRATORY, THORACIC AND MEDIASTINAL DISORDERS","COUGH","COUGH","MILD","N",50,53
"01-714-1288","Xanomeline High Dose",6,"MUSCULOSKELETAL AND CONNECTIVE TISSUE DISORDERS","BACK PAIN","BACK PAIN","MILD","N",83,126
"01-714-1288","Xanomeline High Dose",8,"MUSCULOSKELETAL AND CONNECTIVE TISSUE DISORDERS","BACK PAIN","BACK PAIN","MILD","N",83,126
"01-714-1375","Placebo",1,"SKIN AND SUBCUTANEOUS TISSUE DISORDERS","SKIN IRRITATION","SKIN IRRITATION","MODERATE","N",33,40
"01-714-1375","Placebo",3,"SKIN AND SUBCUTANEOUS TISSUE DISORDERS","SKIN IRRITATION","SKIN IRRITATION","MODERATE","N",33,40
"01-714-1375","Placebo",5,"SKIN AND SUBCUTANEOUS TISSUE DISORDERS","PRURITUS","PRURITUS","MODERATE","N",93,
"01-714-1375","Placebo",6,"SKIN AND SUBCUTANEOUS TISSUE DISORDERS","ERYTHEMA","ERYTHEMA","MODERATE","N",111,
"01-714-1375","Placebo",2,"EAR AND LABYRINTH DISORDERS","EAR PAIN","EAR PAIN","MILD","N",38,49
"01-714-1375","Placebo",4,"EAR AND LABYRINTH DISORDERS","EAR PAIN","EAR PAIN","MILD","N",38,49
"01-714-1375","Placebo",7,"SKIN AND SUBCUTANEOUS TISSUE DISORDERS","PRURITUS","PRURITUS","MILD","N",93,
"01-714-1375","Placebo",8,"SKIN AND SUBCUTANEOUS TISSUE DISORDERS","ERYTHEMA","ERYTHEMA","MILD","N",111,
"01-715-1107","Xanomeline Low Dose",1,"SKIN AND SUBCUTANEOUS TISSUE DISORDERS","DERMATITIS CONTACT","DERMATITIS CONTACT","MODERATE","N",71,85
"01-715-1107","Xanomeline Low Dose",3,"SKIN AND SUBCUTANEOUS TISSUE DISORDERS","DERMATITIS CONTACT","DERMATITIS CONTACT","MODERATE","N",71,85
"01-715-1107","Xanomeline Low Dose",2,"CARDIAC DISORDERS","SINUS BRADYCARDIA","SINUS BRADYCARDIA","MILD","N",77,
"01-715-1207","Placebo",1,"RENAL AND URINARY DISORDERS","NEPHROLITHIASIS","NEPHROLITHIASIS","MODERATE","N",54,54
"01-715-1319","Xanomeline High Dose",1,"CARDIAC DISORDERS","SINUS BRADYCARDIA","SINUS BRADYCARDIA","MODERATE","N",30,30
"01-715-1321","Xanomeline High Dose",3,"GENERAL DISORDERS AND ADMINISTRATION SITE CONDITIONS","APPLICATION SITE REACTION","APPLICATION SITE REACTION","MODERATE","N",70,
"01-715-1321","Xanomeline High Dose",1,"GASTROINTESTINAL DISORDERS","NAUSEA","NAUSEA","MILD","N",32,32
"01-715-1321","Xanomeline High Dose",2,"GASTROINTESTINAL DISORDERS","NAUSEA","NAUSEA","MILD","N",32,32
"01-715-1321","Xanomeline High Dose",4,"CARDIAC DISORDERS","SINUS BRADYCARDIA","SINUS BRADYCARDIA","MILD","N",71,
"01-715-1405","Xanomeline Low Dose",1,"CARDIAC DISORDERS","PALPITATIONS","PALPITATIONS","MODERATE","N",3,3
"01-715-1405","Xanomeline Low Dose",2,"SKIN AND SUBCUTANEOUS TISSUE DISORDERS","HYPERHIDROSIS","HYPERHIDROSIS","MODERATE","N",3,3
"01-715-1405","Xanomeline Low Dose",3,"NERVOUS SYSTEM DISORDERS","DIZZINESS","DIZZINESS","MODERATE","N",3,3
"01-715-1405","Xanomeline Low Dose",4,"PSYCHIATRIC DISORDERS","CONFUSIONAL STATE","CONFUSIONAL STATE","MODERATE","N",3,3
"01-715-1405","Xanomeline Low Dose",5,"CARDIAC DISORDERS","SINUS BRADYCARDIA","SINUS BRADYCARDIA","MODERATE","N",8,8
"01-715-1405","Xanomeline Low Dose",6,"CARDIAC DISORDERS","SINUS BRADYCARDIA","SINUS BRADYCARDIA","MODERATE","N",8,8
"01-716-1024","Placebo",1,"INFECTIONS AND INFESTATIONS","NASOPHARYNGITIS","NASOPHARYNGITIS","MODERATE","N",43,81
"01-716-1024","Placebo",2,"INFECTIONS AND INFESTATIONS","NASOPHARYNGITIS","NASOPHARYNGITIS","MODERATE","N",43,81
"01-716-1024","Placebo",3,"RESPIRATORY, THORACIC AND MEDIASTINAL DISORDERS","EMPHYSEMA","EMPHYSEMA","MILD","N",161,
"01-716-1026","Placebo",1,"SKIN AND SUBCUTANEOUS TISSUE DISORDERS","HYPERHIDROSIS","HYPERHIDROSIS","MILD","N",16,
"01-716-1026","Placebo",2,"SKIN AND SUBCUTANEOUS TISSUE DISORDERS","PRURITUS","PRURITUS","MILD","N",16,
"01-716-1026","Placebo",3,"INVESTIGATIONS","ELECTROCARDIOGRAM T WAVE INVERSION","ELECTROCARDIOGRAM T WAVE INVERSION","MILD","N",17,121
"01-716-1026","Placebo",6,"INVESTIGATIONS","ELECTROCARDIOGRAM T WAVE INVERSION","ELECTROCARDIOGRAM T WAVE INVERSION","MILD","N",17,121
"01-716-1026","Placebo",4,"INFECTIONS AND INFESTATIONS","EAR INFECTION","EAR INFECTION","MILD","N",106,115
"01-716-1026","Placebo",5,"INVESTIGATIONS","ELECTROCARDIOGRAM T WAVE AMPLITUDE DECREASED","ELECTROCARDIOGRAM T WAVE AMPLITUDE DECREASED","MILD","N",121,
"01-716-1026","Placebo",7,"INFECTIONS AND INFESTATIONS","EAR INFECTION","EAR INFECTION","MILD","N",136,148
"01-716-1044","Placebo",1,"GASTROINTESTINAL DISORDERS","DIARRHOEA","DIARRHOEA","MILD","N",25,30
"01-716-1044","Placebo",2,"GASTROINTESTINAL DISORDERS","DIARRHOEA","DIARRHOEA","MILD","N",25,30
"01-716-1044","Placebo",3,"PSYCHIATRIC DISORDERS","CONFUSIONAL STATE","CONFUSIONAL STATE","MILD","N",172,
"01-716-1063","Xanomeline Low Dose",5,"PSYCHIATRIC DISORDERS","RESTLESSNESS","RESTLESSNESS","MODERATE","N",81,84
"01-716-1063","Xanomeline Low Dose",7,"PSYCHIATRIC DISORDERS","RESTLESSNESS","RESTLESSNESS","MODERATE","N",81,84
"01-716-1063","Xanomeline Low Dose",6,"NERVOUS SYSTEM DISORDERS","LETHARGY","LETHARGY","MODERATE","N",84,
"01-716-1063","Xanomeline Low Dose",1,"SKIN AND SUBCUTANEOUS TISSUE DISORDERS","HYPERHIDROSIS","HYPERHIDROSIS","MILD","N",1,
"01-716-1063","Xanomeline Low Dose",2,"GENERAL DISORDERS AND ADMINISTRATION SITE CONDITIONS","FATIGUE","FATIGUE","MILD","N",54,
"01-716-1063","Xanomeline Low Dose",3,"SKIN AND SUBCUTANEOUS TISSUE DISORDERS","PRURITUS","PRURITUS","MILD","N",57,81
"01-716-1063","Xanomeline Low Dose",4,"SKIN AND SUBCUTANEOUS TISSUE DISORDERS","PRURITUS","PRURITUS","MILD","N",57,81
"01-716-1071","Xanomeline High Dose",3,"NERVOUS SYSTEM DISORDERS","SYNCOPE","SYNCOPE","MODERATE","N",54,54
"01-716-1071","Xanomeline High Dose",1,"NERVOUS SYSTEM DISORDERS","HYPERSOMNIA","HYPERSOMNIA","MILD","N",36,
"01-716-1071","Xanomeline High Dose",2,"GENERAL DISORDERS AND ADMINISTRATION SITE CONDITIONS","FATIGUE","FATIGUE","MILD","N",36,
"01-716-1094","Xanomeline Low Dose",1,"CARDIAC DISORDERS","ATRIAL FLUTTER","ATRIAL FLUTTER","MODERATE","N",32,
"01-716-1094","Xanomeline Low Dose",2,"CARDIAC DISORDERS","BUNDLE BRANCH BLOCK RIGHT","BUNDLE BRANCH BLOCK RIGHT","MODERATE","N",32,
"01-716-1094","Xanomeline Low Dose",3,"CONGENITAL, FAMILIAL AND GENETIC DISORDERS","VENTRICULAR SEPTAL DEFECT","VENTRICULAR SEPTAL DEFECT","MODERATE","N",32,
"01-716-1103","Xanomeline Low Dose",4,"SKIN AND SUBCUTANEOUS TISSUE DISORDERS","BLISTER","BLISTER","SEVERE","N",151,158
"01-716-1103","Xanomeline Low Dose",5,"SKIN AND SUBCUTANEOUS TISSUE DISORDERS","BLISTER","BLISTER","SEVERE","N",151,158
"01-716-1103","Xanomeline Low Dose",1,"SKIN AND SUBCUTANEOUS TISSUE DISORDERS","PRURITUS","PRURITUS","MODERATE","N",112,
"01-716-1103","Xanomeline Low Dose",2,"SKIN AND SUBCUTANEOUS TISSUE DISORDERS","BLISTER","BLISTER","MODERATE","N",112,119
"01-716-1103","Xanomeline Low Dose",3,"SKIN AND SUBCUTANEOUS TISSUE DISORDERS","ERYTHEMA","ERYTHEMA","MODERATE","N",112,
"01-716-1108","Placebo",1,"INVESTIGATIONS","ELECTROCARDIOGRAM ST SEGMENT DEPRESSION","ELECTROCARDIOGRAM ST SEGMENT DEPRESSION","MILD","N",60,
"01-716-1108","Placebo",2,"SKIN AND SUBCUTANEOUS TISSUE DISORDERS","PRURITUS","PRURITUS","MILD","N",79,
"01-716-1151","Xanomeline Low Dose",2,"SKIN AND SUBCUTANEOUS TISSUE DISORDERS","PRURITUS","PRURITUS","MODERATE","N",43,
"01-716-1151","Xanomeline Low Dose",3,"SKIN AND SUBCUTANEOUS TISSUE DISORDERS","ERYTHEMA","ERYTHEMA","MODERATE","N",43,
"01-716-1151","Xanomeline Low Dose",1,"NEOPLASMS BENIGN, MALIGNANT AND UNSPECIFIED (INCL CYSTS AND POLYPS)","MALIGNANT FIBROUS HISTIOCYTOMA","MALIGNANT FIBROUS HISTIOCYTOMA","MILD","N",19,50
"01-716-1151","Xanomeline Low Dose",4,"NEOPLASMS BENIGN, MALIGNANT AND UNSPECIFIED (INCL CYSTS AND POLYPS)","MALIGNANT FIBROUS HISTIOCYTOMA","MALIGNANT FIBROUS HISTIOCYTOMA","MILD","N",19,50
"01-716-1157","Xanomeline Low Dose",1,"INFECTIONS AND INFESTATIONS","UPPER RESPIRATORY TRACT INFECTION","UPPER RESPIRATORY TRACT INFECTION","MILD","N",16,34
"01-716-1157","Xanomeline Low Dose",4,"INFECTIONS AND INFESTATIONS","UPPER RESPIRATORY TRACT INFECTION","UPPER RESPIRATORY TRACT INFECTION","MILD","N",16,34
"01-716-1157","Xanomeline Low Dose",2,"SKIN AND SUBCUTANEOUS TISSUE DISORDERS","ERYTHEMA","ERYTHEMA","MILD","N",24,
"01-716-1157","Xanomeline Low Dose",3,"SKIN AND SUBCUTANEOUS TISSUE DISORDERS","PRURITUS","PRURITUS","MILD","N",24,
"01-716-1160","Placebo",1,"SKIN AND SUBCUTANEOUS TISSUE DISORDERS","PRURITUS","PRURITUS","MILD","N",35,
"01-716-1160","Placebo",2,"SKIN AND SUBCUTANEOUS TISSUE DISORDERS","ERYTHEMA","ERYTHEMA","MILD","N",35,
"01-716-1167","Xanomeline Low Dose",1,"SKIN AND SUBCUTANEOUS TISSUE DISORDERS","PRURITUS","PRURITUS","MODERATE","N",41,
"01-716-1167","Xanomeline Low Dose",2,"GENERAL DISORDERS AND ADMINISTRATION SITE CONDITIONS","SWELLING","SWELLING","MODERATE","N",41,
"01-716-1167","Xanomeline Low Dose",3,"SKIN AND SUBCUTANEOUS TISSUE DISORDERS","BLISTER","BLISTER","MODERATE","N",57,
"01-716-1167","Xanomeline Low Dose",4,"IMMUNE SYSTEM DISORDERS","HYPERSENSITIVITY","HYPERSENSITIVITY","MILD","N",154,185
"01-716-1167","Xanomeline Low Dose",5,"IMMUNE SYSTEM DISORDERS","HYPERSENSITIVITY","HYPERSENSITIVITY","MILD","N",154,185
"01-716-1189","Xanomeline High Dose",4,"NEOPLASMS BENIGN, MALIGNANT AND UNSPECIFIED (INCL CYSTS AND POLYPS)","PROSTATE CANCER","PROSTATE CANCER","SEVERE","N",122,
"01-716-1189","Xanomeline High Dose",1,"PSYCHIATRIC DISORDERS","HALLUCINATION","HALLUCINATION","MODERATE","N",47,
"01-716-1189","Xanomeline High Dose",2,"PSYCHIATRIC DISORDERS","DELUSION","DELUSION","MODERATE","N",47,
"01-716-1189","Xanomeline High Dose",3,"SKIN AND SUBCUTANEOUS TISSUE DISORDERS","PRURITUS","PRURITUS","MILD","N",89,
"01-716-1229","Xanomeline High Dose",1,"SKIN AND SUBCUTANEOUS TISSUE DISORDERS","PRURITUS","PRURITUS","MODERATE","N",1,
"01-716-1229","Xanomeline High Dose",2,"INVESTIGATIONS","BLOOD CHOLESTEROL INCREASED","BLOOD CHOLESTEROL INCREASED","MILD","N",15,
"01-716-1298","Xanomeline Low Dose",1,"SKIN AND SUBCUTANEOUS TISSUE DISORDERS","ERYTHEMA","ERYTHEMA","MODERATE","N",15,90
"01-716-1298","Xanomeline Low Dose",2,"SKIN AND SUBCUTANEOUS TISSUE DISORDERS","PRURITUS","PRURITUS","MODERATE","N",15,90
"01-716-1298","Xanomeline Low Dose",4,"SKIN AND SUBCUTANEOUS TISSUE DISORDERS","ERYTHEMA","ERYTHEMA","MODERATE","N",15,90
"01-716-1298","Xanomeline Low Dose",5,"SKIN AND SUBCUTANEOUS TISSUE DISORDERS","PRURITUS","PRURITUS","MODERATE","N",15,90
"01-716-1298","Xanomeline Low Dose",3,"SKIN AND SUBCUTANEOUS TISSUE DISORDERS","BLISTER","BLISTER","MODERATE","N",62,90
"01-716-1298","Xanomeline Low Dose",6,"SKIN AND SUBCUTANEOUS TISSUE DISORDERS","BLISTER","BLISTER","MODERATE","N",62,90
"01-716-1308","Placebo",1,"SKIN AND SUBCUTANEOUS TISSUE DISORDERS","ERYTHEMA","ERYTHEMA","MILD","N",24,
"01-716-1311","Xanomeline Low Dose",2,"GASTROINTESTINAL DISORDERS","ABDOMINAL PAIN","ABDOMINAL PAIN","MODERATE","N",70,81
"01-716-1311","Xanomeline Low Dose",3,"GENERAL DISORDERS AND ADMINISTRATION SITE CONDITIONS","ULCER","ULCER","MODERATE","N",81,
"01-716-1311","Xanomeline Low Dose",1,"SKIN AND SUBCUTANEOUS TISSUE DISORDERS","ERYTHEMA","ERYTHEMA","MILD","N",15,132
"01-716-1311","Xanomeline Low Dose",4,"SKIN AND SUBCUTANEOUS TISSUE DISORDERS","ERYTHEMA","ERYTHEMA","MILD","N",15,132
"01-716-1364","Xanomeline High Dose",1,"SKIN AND SUBCUTANEOUS TISSUE DISORDERS","PRURITUS","PRURITUS","MILD","N",46,
"01-716-1364","Xanomeline High Dose",2,"SKIN AND SUBCUTANEOUS TISSUE DISORDERS","ERYTHEMA","ERYTHEMA","MILD","N",61,
"01-716-1373","Xanomeline High Dose",2,"SKIN AND SUBCUTANEOUS TISSUE DISORDERS","PRURITUS","PRURITUS","MODERATE","N",2,
"01-716-1373","Xanomeline High Dose",1,"NERVOUS SYSTEM DISORDERS","COGNITIVE DISORDER","COGNITIVE DISORDER","MILD","N",1,
"01-716-1418","Xanomeline High Dose",5,"NERVOUS SYSTEM DISORDERS","HEADACHE","HEADACHE","MODERATE","N",58,145
"01-716-1418","Xanomeline High Dose",6,"EYE DISORDERS","VISION BLURRED","VISION BLURRED","MODERATE","N",58,153
"01-716-1418","Xanomeline High Dose",7,"NERVOUS SYSTEM DISORDERS","HEADACHE","HEADACHE","MODERATE","N",58,145
"01-716-1418","Xanomeline High Dose",8,"EYE DISORDERS","VISION BLURRED","VISION BLURRED","MODERATE","N",58,153
"01-716-1418","Xanomeline High Dose",1,"SKIN AND SUBCUTANEOUS TISSUE DISORDERS","URTICARIA","URTICARIA","MILD","N",1,3
"01-716-1418","Xanomeline High Dose",2,"SKIN AND SUBCUTANEOUS TISSUE DISORDERS","ERYTHEMA","ERYTHEMA","MILD","N",1,
"01-716-1418","Xanomeline High Dose",3,"SKIN AND SUBCUTANEOUS TISSUE DISORDERS","URTICARIA","URTICARIA","MILD","N",1,3
"01-716-1418","Xanomeline High Dose",4,"SKIN AND SUBCUTANEOUS TISSUE DISORDERS","PRURITUS","PRURITUS","MILD","N",3,
"01-716-1418","Xanomeline High Dose",9,"NERVOUS SYSTEM DISORDERS","HEADACHE","HEADACHE","MILD","N",145,191
"01-716-1418","Xanomeline High Dose",10,"NERVOUS SYSTEM DISORDERS","HEADACHE","HEADACHE","MILD","N",145,191
"01-716-1441","Placebo",1,"SKIN AND SUBCUTANEOUS TISSUE DISORDERS","ERYTHEMA","ERYTHEMA","MILD","N",110,
"01-716-1447","Xanomeline High Dose",2,"SKIN AND SUBCUTANEOUS TISSUE DISORDERS","ERYTHEMA","ERYTHEMA","MODERATE","N",30,
"01-716-1447","Xanomeline High Dose",3,"SKIN AND SUBCUTANEOUS TISSUE DISORDERS","PRURITUS","PRURITUS","MODERATE","N",30,
"01-716-1447","Xanomeline High Dose",1,"SKIN AND SUBCUTANEOUS TISSUE DISORDERS","HYPERHIDROSIS","HYPERHIDROSIS","MILD","N",17,
"01-716-1447","Xanomeline High Dose",4,"INVESTIGATIONS","ELECTROCARDIOGRAM T WAVE INVERSION","ELECTROCARDIOGRAM T WAVE INVERSION","MILD","N",89,
"01-716-1447","Xanomeline High Dose",5,"GENERAL DISORDERS AND ADMINISTRATION SITE CONDITIONS","CHEST PAIN","CHEST PAIN","MILD","N",111,115
"01-717-1004","Xanomeline Low Dose",3,"RESPIRATORY, THORACIC AND MEDIASTINAL DISORDERS","COUGH","COUGH","MODERATE","N",2,36
"01-717-1004","Xanomeline Low Dose",5,"GENERAL DISORDERS AND ADMINISTRATION SITE CONDITIONS","FATIGUE","FATIGUE","MODERATE","N",2,
"01-717-1004","Xanomeline Low Dose",12,"RESPIRATORY, THORACIC AND MEDIASTINAL DISORDERS","COUGH","COUGH","MODERATE","N",2,36
"01-717-1004","Xanomeline Low Dose",17,"MUSCULOSKELETAL AND CONNECTIVE TISSUE DISORDERS","BACK PAIN","BACK PAIN","MODERATE","N",128,
"01-717-1004","Xanomeline Low Dose",4,"RESPIRATORY, THORACIC AND MEDIASTINAL DISORDERS","RHINORRHOEA","RHINORRHOEA","MILD","N",2,26
"01-717-1004","Xanomeline Low Dose",6,"SKIN AND SUBCUTANEOUS TISSUE DISORDERS","SKIN IRRITATION","SKIN IRRITATION","MILD","N",2,27
"01-717-1004","Xanomeline Low Dose",7,"PSYCHIATRIC DISORDERS","ANXIETY","ANXIETY","MILD","N",2,
"01-717-1004","Xanomeline Low Dose",8,"PSYCHIATRIC DISORDERS","IRRITABILITY","IRRITABILITY","MILD","N",2,
"01-717-1004","Xanomeline Low Dose",9,"RESPIRATORY, THORACIC AND MEDIASTINAL DISORDERS","RHINORRHOEA","RHINORRHOEA","MILD","N",2,26
"01-717-1004","Xanomeline Low Dose",11,"SKIN AND SUBCUTANEOUS TISSUE DISORDERS","SKIN IRRITATION","SKIN IRRITATION","MILD","N",2,27
"01-717-1004","Xanomeline Low Dose",13,"SKIN AND SUBCUTANEOUS TISSUE DISORDERS","SKIN IRRITATION","SKIN IRRITATION","MILD","N",55,61
"01-717-1004","Xanomeline Low Dose",14,"SKIN AND SUBCUTANEOUS TISSUE DISORDERS","SKIN IRRITATION","SKIN IRRITATION","MILD","N",55,61
"01-717-1004","Xanomeline Low Dose",15,"CARDIAC DISORDERS","SINUS BRADYCARDIA","SINUS BRADYCARDIA","MILD","N",85,
"01-717-1004","Xanomeline Low Dose",16,"SKIN AND SUBCUTANEOUS TISSUE DISORDERS","SKIN IRRITATION","SKIN IRRITATION","MILD","N",98,
"01-717-1004","Xanomeline Low Dose",18,"INJURY, POISONING AND PROCEDURAL COMPLICATIONS","WOUND","WOUND","MILD","N",141,148
"01-717-1004","Xanomeline Low Dose",19,"INJURY, POISONING AND PROCEDURAL COMPLICATIONS","WOUND","WOUND","MILD","N",141,148
"01-717-1109","Xanomeline High Dose",1,"METABOLISM AND NUTRITION DISORDERS","INCREASED APPETITE","INCREASED APPETITE","MILD","N",3,171
"01-717-1109","Xanomeline High Dose",8,"METABOLISM AND NUTRITION DISORDERS","INCREASED APPETITE","INCREASED APPETITE","MILD","N",3,171
"01-717-1109","Xanomeline High Dose",2,"SKIN AND SUBCUTANEOUS TISSUE DISORDERS","SKIN IRRITATION","SKIN IRRITATION","MILD","N",20,
"01-717-1109","Xanomeline High Dose",3,"SKIN AND SUBCUTANEOUS TISSUE DISORDERS","HYPERHIDROSIS","HYPERHIDROSIS","MILD","N",20,22
"01-717-1109","Xanomeline High Dose",4,"PSYCHIATRIC DISORDERS","CONFUSIONAL STATE","CONFUSIONAL STATE","MILD","N",25,
"01-717-1109","Xanomeline High Dose",5,"PSYCHIATRIC DISORDERS","INSOMNIA","INSOMNIA","MILD","N",27,
"01-717-1109","Xanomeline High Dose",6,"SKIN AND SUBCUTANEOUS TISSUE DISORDERS","PRURITUS GENERALISED","PRURITUS GENERALISED","MILD","N",37,
"01-717-1109","Xanomeline High Dose",7,"CARDIAC DISORDERS","VENTRICULAR EXTRASYSTOLES","VENTRICULAR EXTRASYSTOLES","MILD","N",82,
"01-717-1174","Xanomeline High Dose",4,"SKIN AND SUBCUTANEOUS TISSUE DISORDERS","RASH","RASH","SEVERE","N",94,95
"01-717-1174","Xanomeline High Dose",5,"SKIN AND SUBCUTANEOUS TISSUE DISORDERS","SKIN IRRITATION","SKIN IRRITATION","MODERATE","N",5,
"01-717-1174","Xanomeline High Dose",6,"SKIN AND SUBCUTANEOUS TISSUE DISORDERS","PRURITUS","PRURITUS","MODERATE","N",13,
"01-717-1174","Xanomeline High Dose",1,"SKIN AND SUBCUTANEOUS TISSUE DISORDERS","SKIN IRRITATION","SKIN IRRITATION","MILD","N",5,
"01-717-1174","Xanomeline High Dose",2,"SKIN AND SUBCUTANEOUS TISSUE DISORDERS","PRURITUS","PRURITUS","MILD","N",13,
"01-717-1174","Xanomeline High Dose",3,"PSYCHIATRIC DISORDERS","INSOMNIA","INSOMNIA","MILD","N",86,88
"01-717-1201","Placebo",1,"SKIN AND SUBCUTANEOUS TISSUE DISORDERS","SKIN IRRITATION","SKIN IRRITATION","MILD","N",1,
"01-717-1201","Placebo",2,"SKIN AND SUBCUTANEOUS TISSUE DISORDERS","ALOPECIA","ALOPECIA","MILD","N",28,
"01-717-1344","Placebo",4,"GASTROINTESTINAL DISORDERS","NAUSEA","NAUSEA","MODERATE","N",49,50
"01-717-1344","Placebo",5,"GASTROINTESTINAL DISORDERS","VOMITING","VOMITING","MODERATE","N",49,50
"01-717-1344","Placebo",1,"RESPIRATORY, THORACIC AND MEDIASTINAL DISORDERS","NASAL CONGESTION","NASAL CONGESTION","MILD","N",22,27
"01-717-1344","Placebo",2,"GENERAL DISORDERS AND ADMINISTRATION SITE CONDITIONS","FATIGUE","FATIGUE","MILD","N",22,39
"01-717-1344","Placebo",3,"GENERAL DISORDERS AND ADMINISTRATION SITE CONDITIONS","FATIGUE","FATIGUE","MILD","N",22,39
"01-717-1357","Xanomeline High Dose",5,"SKIN AND SUBCUTANEOUS TISSUE DISORDERS","SKIN IRRITATION","SKIN IRRITATION","MODERATE","N",23,
"01-717-1357","Xanomeline High Dose",3,"GENERAL DISORDERS AND ADMINISTRATION SITE CONDITIONS","OEDEMA PERIPHERAL","OEDEMA PERIPHERAL","MODERATE","N",29,
"01-717-1357","Xanomeline High Dose",4,"GENERAL DISORDERS AND ADMINISTRATION SITE CONDITIONS","APPLICATION SITE PERSPIRATION","APPLICATION SITE PERSPIRATION","MODERATE","N",42,168
"01-717-1357","Xanomeline High Dose",9,"GENERAL DISORDERS AND ADMINISTRATION SITE CONDITIONS","APPLICATION SITE PERSPIRATION","APPLICATION SITE PERSPIRATION","MODERATE","N",42,168
"01-717-1357","Xanomeline High Dose",6,"GASTROINTESTINAL DISORDERS","VOMITING","VOMITING","MODERATE","N",68,69
"01-717-1357","Xanomeline High Dose",8,"NERVOUS SYSTEM DISORDERS","DIZZINESS","DIZZINESS","MODERATE","N",102,102
"01-717-1357","Xanomeline High Dose",2,"SKIN AND SUBCUTANEOUS TISSUE DISORDERS","SKIN IRRITATION","SKIN IRRITATION","MILD","N",23,
"01-717-1357","Xanomeline High Dose",7,"GASTROINTESTINAL DISORDERS","NAUSEA","NAUSEA","MILD","N",83,83
"01-717-1446","Xanomeline Low Dose",3,"SKIN AND SUBCUTANEOUS TISSUE DISORDERS","SKIN IRRITATION","SKIN IRRITATION","MODERATE","N",19,
"01-717-1446","Xanomeline Low Dose",7,"GENERAL DISORDERS AND ADMINISTRATION SITE CONDITIONS","PAIN","PAIN","MODERATE","N",135,136
"01-717-1446","Xanomeline Low Dose",8,"GENERAL DISORDERS AND ADMINISTRATION SITE CONDITIONS","PAIN","PAIN","MODERATE","N",150,
"01-717-1446","Xanomeline Low Dose",1,"PSYCHIATRIC DISORDERS","ANXIETY","ANXIETY","MILD","N",15,16
"01-717-1446","Xanomeline Low Dose",2,"PSYCHIATRIC DISORDERS","ANXIETY","ANXIETY","MILD","N",15,16
"01-717-1446","Xanomeline Low Dose",4,"CARDIAC DISORDERS","SINUS BRADYCARDIA","SINUS BRADYCARDIA","MILD","N",36,184
"01-717-1446","Xanomeline Low Dose",9,"CARDIAC DISORDERS","SINUS BRADYCARDIA","SINUS BRADYCARDIA","MILD","N",36,184
"01-717-1446","Xanomeline Low Dose",5,"SKIN AND SUBCUTANEOUS TISSUE DISORDERS","RASH","RASH","MILD","N",37,41
"01-717-1446","Xanomeline Low Dose",6,"SKIN AND SUBCUTANEOUS TISSUE DISORDERS","RASH","RASH","MILD","N",37,41
"01-718-1066","Xanomeline Low Dose",1,"NERVOUS SYSTEM DISORDERS","SYNCOPE","SYNCOPE","SEVERE","N",10,14
"01-718-1066","Xanomeline Low Dose",3,"NERVOUS SYSTEM DISORDERS","SYNCOPE","SYNCOPE","SEVERE","N",24,
"01-718-1066","Xanomeline Low Dose",2,"PSYCHIATRIC DISORDERS","AGITATION","AGITATION","MODERATE","N",12,
"01-718-1066","Xanomeline Low Dose",4,"GENERAL DISORDERS AND ADMINISTRATION SITE CONDITIONS","INFLAMMATION","INFLAMMATION","MODERATE","N",24,
"01-718-1079","Xanomeline Low Dose",3,"GENERAL DISORDERS AND ADMINISTRATION SITE CONDITIONS","APPLICATION SITE IRRITATION","APPLICATION SITE IRRITATION","SEVERE","N",17,
"01-718-1079","Xanomeline Low Dose",1,"PSYCHIATRIC DISORDERS","CONFUSIONAL STATE","CONFUSIONAL STATE","MODERATE","N",17,
"01-718-1079","Xanomeline Low Dose",2,"GENERAL DISORDERS AND ADMINISTRATION SITE CONDITIONS","APPLICATION SITE IRRITATION","APPLICATION SITE IRRITATION","MODERATE","N",17,
"01-718-1101","Xanomeline High Dose",1,"GASTROINTESTINAL DISORDERS","VOMITING","VOMITING","MILD","N",18,18
"01-718-1101","Xanomeline High Dose",2,"CARDIAC DISORDERS","SINUS BRADYCARDIA","SINUS BRADYCARDIA","MILD","N",56,85
"01-718-1101","Xanomeline High Dose",4,"CARDIAC DISORDERS","SINUS BRADYCARDIA","SINUS BRADYCARDIA","MILD","N",56,85
"01-718-1101","Xanomeline High Dose",3,"SKIN AND SUBCUTANEOUS TISSUE DISORDERS","HYPERHIDROSIS","HYPERHIDROSIS","MILD","N",57,140
"01-718-1101","Xanomeline High Dose",6,"SKIN AND SUBCUTANEOUS TISSUE DISORDERS","HYPERHIDROSIS","HYPERHIDROSIS","MILD","N",57,140
"01-718-1101","Xanomeline High Dose",5,"CARDIAC DISORDERS","MYOCARDIAL INFARCTION","MYOCARDIAL INFARCTION","MILD","N",140,
"01-718-1139","Placebo",1,"NERVOUS SYSTEM DISORDERS","SOMNOLENCE","SOMNOLENCE","MODERATE","N",16,59
"01-718-1139","Placebo",2,"NERVOUS SYSTEM DISORDERS","SOMNOLENCE","SOMNOLENCE","MODERATE","N",16,59
"01-718-1139","Placebo",3,"GASTROINTESTINAL DISORDERS","DIARRHOEA","DIARRHOEA","MILD","N",182,182
"01-718-1150","Placebo",2,"INFECTIONS AND INFESTATIONS","UPPER RESPIRATORY TRACT INFECTION","UPPER RESPIRATORY TRACT INFECTION","MODERATE","N",47,67
"01-718-1150","Placebo",5,"INFECTIONS AND INFESTATIONS","UPPER RESPIRATORY TRACT INFECTION","UPPER RESPIRATORY TRACT INFECTION","MODERATE","N",47,67
"01-718-1150","Placebo",1,"CARDIAC DISORDERS","BRADYCARDIA","BRADYCARDIA","MILD","N",29,58
"01-718-1150","Placebo",4,"CARDIAC DISORDERS","BRADYCARDIA","BRADYCARDIA","MILD","N",29,58
"01-718-1150","Placebo",3,"GENERAL DISORDERS AND ADMINISTRATION SITE CONDITIONS","APPLICATION SITE IRRITATION","APPLICATION SITE IRRITATION","MILD","N",56,56
"01-718-1150","Placebo",6,"CARDIAC DISORDERS","BRADYCARDIA","BRADYCARDIA","MILD","N",112,170
"01-718-1150","Placebo",9,"CARDIAC DISORDERS","BRADYCARDIA","BRADYCARDIA","MILD","N",112,170
"01-718-1150","Placebo",7,"METABOLISM AND NUTRITION DISORDERS","FOOD CRAVING","FOOD CRAVING","MILD","N",142,
"01-718-1150","Placebo",8,"GENERAL DISORDERS AND ADMINISTRATION SITE CONDITIONS","APPLICATION SITE IRRITATION","APPLICATION SITE IRRITATION","MILD","N",149,
"01-718-1150","Placebo",10,"CARDIAC DISORDERS","SINUS BRADYCARDIA","SINUS BRADYCARDIA","MILD","N",194,
"01-718-1170","Xanomeline Low Dose",5,"NERVOUS SYSTEM DISORDERS","SYNCOPE","SYNCOPE","SEVERE","Y",27,28
"01-718-1170","Xanomeline Low Dose",6,"PSYCHIATRIC DISORDERS","AGITATION","AGITATION","SEVERE","N",31,
"01-718-1170","Xanomeline Low Dose",1,"NERVOUS SYSTEM DISORDERS","DIZZINESS","DIZZINESS","MODERATE","N",22,22
"01-718-1170","Xanomeline Low Dose",2,"SKIN AND SUBCUTANEOUS TISSUE DISORDERS","HYPERHIDROSIS","HYPERHIDROSIS","MODERATE","N",26,27
"01-718-1170","Xanomeline Low Dose",3,"INVESTIGATIONS","BODY TEMPERATURE INCREASED","BODY TEMPERATURE INCREASED","MILD","N",26,27
"01-718-1170","Xanomeline Low Dose",4,"VASCULAR DISORDERS","HYPERTENSION","HYPERTENSION","MILD","N",26,27
"01-718-1250","Xanomeline Low Dose",1,"NERVOUS SYSTEM DISORDERS","BALANCE DISORDER","BALANCE DISORDER","MODERATE","N",19,56
"01-718-1250","Xanomeline Low Dose",3,"INJURY, POISONING AND PROCEDURAL COMPLICATIONS","CONTUSION","CONTUSION","MODERATE","N",25,43
"01-718-1250","Xanomeline Low Dose",9,"GENERAL DISORDERS AND ADMINISTRATION SITE CONDITIONS","APPLICATION SITE PRURITUS","APPLICATION SITE PRURITUS","MODERATE","N",100,152
"01-718-1250","Xanomeline Low Dose",2,"INJURY, POISONING AND PROCEDURAL COMPLICATIONS","FALL","FALL","MILD","N",19,19
"01-718-1250","Xanomeline Low Dose",4,"NERVOUS SYSTEM DISORDERS","BALANCE DISORDER","BALANCE DISORDER","MILD","N",19,56
"01-718-1250","Xanomeline Low Dose",6,"NERVOUS SYSTEM DISORDERS","BALANCE DISORDER","BALANCE DISORDER","MILD","N",19,56
"01-718-1250","Xanomeline Low Dose",5,"INJURY, POISONING AND PROCEDURAL COMPLICATIONS","CONTUSION","CONTUSION","MILD","N",25,43
"01-718-1250","Xanomeline Low Dose",7,"INJURY, POISONING AND PROCEDURAL COMPLICATIONS","CONTUSION","CONTUSION","MILD","N",25,43
"01-718-1250","Xanomeline Low Dose",8,"NERVOUS SYSTEM DISORDERS","COORDINATION ABNORMAL","COORDINATION ABNORMAL","MILD","N",56,56
"01-718-1250","Xanomeline Low Dose",10,"GENERAL DISORDERS AND ADMINISTRATION SITE CONDITIONS","APPLICATION SITE PRURITUS","APPLICATION SITE PRURITUS","MILD","N",100,152
"01-718-1250","Xanomeline Low Dose",11,"GENERAL DISORDERS AND ADMINISTRATION SITE CONDITIONS","APPLICATION SITE PRURITUS","APPLICATION SITE PRURITUS","MILD","N",100,152
"01-718-1254","Xanomeline Low Dose",1,"MUSCULOSKELETAL AND CONNECTIVE TISSUE DISORDERS","ARTHRALGIA","ARTHRALGIA","MODERATE","N",4,
"01-718-1254","Xanomeline Low Dose",4,"GENERAL DISORDERS AND ADMINISTRATION SITE CONDITIONS","APPLICATION SITE DISCOLOURATION","APPLICATION SITE DISCOLOURATION","MODERATE","N",35,
"01-718-1254","Xanomeline Low Dose",5,"GENERAL DISORDERS AND ADMINISTRATION SITE CONDITIONS","APPLICATION SITE PRURITUS","APPLICATION SITE PRURITUS","MODERATE","N",35,
"01-718-1254","Xanomeline Low Dose",6,"NERVOUS SYSTEM DISORDERS","SOMNOLENCE","SOMNOLENCE","MODERATE","N",56,72
"01-718-1254","Xanomeline Low Dose",7,"NERVOUS SYSTEM DISORDERS","SOMNOLENCE","SOMNOLENCE","MODERATE","N",56,72
"01-718-1254","Xanomeline Low Dose",8,"METABOLISM AND NUTRITION DISORDERS","FOOD CRAVING","FOOD CRAVING","MODERATE","N",114,
"01-718-1254","Xanomeline Low Dose",9,"GASTROINTESTINAL DISORDERS","DYSPHAGIA","DYSPHAGIA","MODERATE","N",114,
"01-718-1254","Xanomeline Low Dose",2,"MUSCULOSKELETAL AND CONNECTIVE TISSUE DISORDERS","ARTHRALGIA","ARTHRALGIA","MILD","N",16,16
"01-718-1254","Xanomeline Low Dose",3,"MUSCULOSKELETAL AND CONNECTIVE TISSUE DISORDERS","ARTHRALGIA","ARTHRALGIA","MILD","N",16,16
"01-718-1328","Xanomeline High Dose",4,"GENERAL DISORDERS AND ADMINISTRATION SITE CONDITIONS","APPLICATION SITE IRRITATION","APPLICATION SITE IRRITATION","MODERATE","N",61,80
"01-718-1328","Xanomeline High Dose",1,"GENERAL DISORDERS AND ADMINISTRATION SITE CONDITIONS","APPLICATION SITE DERMATITIS","APPLICATION SITE DERMATITIS","MILD","N",51,53
"01-718-1328","Xanomeline High Dose",2,"GENERAL DISORDERS AND ADMINISTRATION SITE CONDITIONS","APPLICATION SITE IRRITATION","APPLICATION SITE IRRITATION","MILD","N",51,53
"01-718-1328","Xanomeline High Dose",3,"GENERAL DISORDERS AND ADMINISTRATION SITE CONDITIONS","APPLICATION SITE IRRITATION","APPLICATION SITE IRRITATION","MILD","N",61,80
"01-718-1355","Placebo",1,"SKIN AND SUBCUTANEOUS TISSUE DISORDERS","SKIN ULCER","SKIN ULCER","MODERATE","N",9,23
"01-718-1355","Placebo",2,"SKIN AND SUBCUTANEOUS TISSUE DISORDERS","SKIN ULCER","SKIN ULCER","MODERATE","N",9,23
"01-718-1355","Placebo",4,"PSYCHIATRIC DISORDERS","CONFUSIONAL STATE","CONFUSIONAL STATE","MODERATE","N",49,
"01-718-1355","Placebo",9,"NERVOUS SYSTEM DISORDERS","SOMNOLENCE","SOMNOLENCE","MODERATE","N",87,
"01-718-1355","Placebo",11,"GENERAL DISORDERS AND ADMINISTRATION SITE CONDITIONS","APPLICATION SITE REACTION","APPLICATION SITE REACTION","MODERATE","N",116,167
"01-718-1355","Placebo",12,"VASCULAR DISORDERS","HYPERTENSION","HYPERTENSION","MODERATE","N",169,183
"01-718-1355","Placebo",13,"VASCULAR DISORDERS","HYPERTENSION","HYPERTENSION","MODERATE","N",169,183
"01-718-1355","Placebo",5,"GENERAL DISORDERS AND ADMINISTRATION SITE CONDITIONS","APPLICATION SITE DERMATITIS","APPLICATION SITE DERMATITIS","MILD","N",59,59
"01-718-1355","Placebo",6,"GENERAL DISORDERS AND ADMINISTRATION SITE CONDITIONS","APPLICATION SITE DERMATITIS","APPLICATION SITE DERMATITIS","MILD","N",74,74
"01-718-1355","Placebo",7,"GENERAL DISORDERS AND ADMINISTRATION SITE CONDITIONS","APPLICATION SITE DERMATITIS","APPLICATION SITE DERMATITIS","MILD","N",78,78
"01-718-1355","Placebo",8,"GENERAL DISORDERS AND ADMINISTRATION SITE CONDITIONS","APPLICATION SITE DERMATITIS","APPLICATION SITE DERMATITIS","MILD","N",82,82
"01-718-1355","Placebo",10,"GENERAL DISORDERS AND ADMINISTRATION SITE CONDITIONS","APPLICATION SITE REACTION","APPLICATION SITE REACTION","MILD","N",116,167
"01-718-1371","Xanomeline High Dose",4,"NERVOUS SYSTEM DISORDERS","PARTIAL SEIZURES WITH SECONDARY GENERALISATION","PARTIAL SEIZURES WITH SECONDARY GENERALISATION","SEVERE","Y",38,41
"01-718-1371","Xanomeline High Dose",6,"GENERAL DISORDERS AND ADMINISTRATION SITE CONDITIONS","APPLICATION SITE IRRITATION","APPLICATION SITE IRRITATION","MODERATE","N",29,
"01-718-1371","Xanomeline High Dose",5,"PSYCHIATRIC DISORDERS","HALLUCINATION, VISUAL","HALLUCINATION, VISUAL","MODERATE","N",38,39
"01-718-1371","Xanomeline High Dose",1,"GENERAL DISORDERS AND ADMINISTRATION SITE CONDITIONS","FATIGUE","FATIGUE","MILD","N",14,16
"01-718-1371","Xanomeline High Dose",2,"GASTROINTESTINAL DISORDERS","NAUSEA","NAUSEA","MILD","N",14,16
"01-718-1371","Xanomeline High Dose",3,"GENERAL DISORDERS AND ADMINISTRATION SITE CONDITIONS","APPLICATION SITE IRRITATION","APPLICATION SITE IRRITATION","MILD","N",29,
"01-718-1427","Xanomeline High Dose",8,"GASTROINTESTINAL DISORDERS","NAUSEA","NAUSEA","SEVERE","N",36,39
"01-718-1427","Xanomeline High Dose",2,"GASTROINTESTINAL DISORDERS","NAUSEA","NAUSEA","MODERATE","N",10,10
"01-718-1427","Xanomeline High Dose",4,"GASTROINTESTINAL DISORDERS","NAUSEA","NAUSEA","MODERATE","N",18,24
"01-718-1427","Xanomeline High Dose",5,"NERVOUS SYSTEM DISORDERS","LETHARGY","LETHARGY","MODERATE","N",20,20
"01-718-1427","Xanomeline High Dose",6,"GASTROINTESTINAL DISORDERS","NAUSEA","NAUSEA","MODERATE","N",31,31
"01-718-1427","Xanomeline High Dose",9,"GENERAL DISORDERS AND ADMINISTRATION SITE CONDITIONS","APPLICATION SITE PRURITUS","APPLICATION SITE PRURITUS","MODERATE","N",42,43
"01-718-1427","Xanomeline High Dose",10,"GENERAL DISORDERS AND ADMINISTRATION SITE CONDITIONS","APPLICATION SITE DERMATITIS","APPLICATION SITE DERMATITIS","MODERATE","N",42,42
"01-718-1427","Xanomeline High Dose",11,"GENERAL DISORDERS AND ADMINISTRATION SITE CONDITIONS","APPLICATION SITE PRURITUS","APPLICATION SITE PRURITUS","MODERATE","N",42,43
"01-718-1427","Xanomeline High Dose",13,"METABOLISM AND NUTRITION DISORDERS","DECREASED APPETITE","DECREASED APPETITE","MODERATE","N",50,71
"01-718-1427","Xanomeline High Dose",14,"GASTROINTESTINAL DISORDERS","NAUSEA","NAUSEA","MODERATE","N",50,71
"01-718-1427","Xanomeline High Dose",15,"METABOLISM AND NUTRITION DISORDERS","DECREASED APPETITE","DECREASED APPETITE","MODERATE","N",50,71
"01-718-1427","Xanomeline High Dose",16,"GASTROINTESTINAL DISORDERS","NAUSEA","NAUSEA","MODERATE","N",50,71
"01-718-1427","Xanomeline High Dose",1,"MUSCULOSKELETAL AND CONNECTIVE TISSUE DISORDERS","BACK PAIN","BACK PAIN","MILD","N",2,2
"01-718-1427","Xanomeline High Dose",3,"NERVOUS SYSTEM DISORDERS","AMNESIA","AMNESIA","MILD","N",16,34
"01-718-1427","Xanomeline High Dose",7,"NERVOUS SYSTEM DISORDERS","AMNESIA","AMNESIA","MILD","N",16,34
"01-718-1427","Xanomeline High Dose",12,"GENERAL DISORDERS AND ADMINISTRATION SITE CONDITIONS","APPLICATION SITE DERMATITIS","APPLICATION SITE DERMATITIS","MILD","N",44,
"01-701-1033","Xanomeline Low Dose",,"","","","","",,
"01-701-1118","Placebo",,"","","","","",,
"01-701-1234","Placebo",,"","","","","",,
"01-701-1345","Placebo",,"","","","","",,
"01-701-1429","Xanomeline Low Dose",,"","","","","",,
"01-701-1440","Placebo",,"","","","","",,
"01-703-1096","Placebo",,"","","","","",,
"01-703-1175","Placebo",,"","","","","",,
"01-703-1197","Xanomeline Low Dose",,"","","","","",,
"01-703-1279","Xanomeline Low Dose",,"","","","","",,
"01-703-1335","Xanomeline High Dose",,"","","","","",,
"01-703-1379","Xanomeline Low Dose",,"","","","","",,
"01-704-1127","Placebo",,"","","","","",,
"01-704-1233","Placebo",,"","","","","",,
"01-704-1260","Placebo",,"","","","","",,
"01-704-1388","Placebo",,"","","","","",,
"01-705-1018","Placebo",,"","","","","",,
"01-705-1282","Placebo",,"","","","","",,
"01-705-1303","Xanomeline High Dose",,"","","","","",,
"01-705-1377","Xanomeline High Dose",,"","","","","",,
"01-705-1382","Xanomeline Low Dose",,"","","","","",,
"01-707-1037","Xanomeline Low Dose",,"","","","","",,
"01-708-1171","Placebo",,"","","","","",,
"01-708-1236","Xanomeline Low Dose",,"","","","","",,
"01-708-1342","Placebo",,"","","","","",,
"01-708-1372","Xanomeline Low Dose",,"","","","","",,
"01-708-1378","Placebo",,"","","","","",,
"01-709-1001","Placebo",,"","","","","",,
"01-710-1078","Placebo",,"","","","","",,
"01-713-1106","Xanomeline High Dose",,"","","","","",,
"01-714-1425","Xanomeline Low Dose",,"","","","","",,
"01-715-1085","Xanomeline Low Dose",,"","","","","",,
"01-715-1155","Placebo",,"","","","","",,
"01-715-1397","Placebo",,"","","","","",,
"01-716-1030","Xanomeline Low Dose",,"","","","","",,
"01-716-1177","Placebo",,"","","","","",,
"01-718-1172","Placebo",,"","","","","",,
