"USUBJID","SITE","SITEID","SEX","RACE","AGE","ARM","VISIT","VISITNUM","PARAMCD","TEST","STRESU","STRESN","BASE","CHG","ABLFL"
"01-701-1015","Clinical Site 701","701","F","WHITE",63,"Placebo","Baseline",0,"QTCF","QTcF","msec",328.4,328.4,0,"Y"
"01-701-1015","Clinical Site 701","701","F","WHITE",63,"Placebo","Week 2",2,"QTCF","QTcF","msec",332.2,328.4,3.8,""
"01-701-1015","Clinical Site 701","701","F","WHITE",63,"Placebo","Week 4",4,"QTCF","QTcF","msec",381.9,328.4,53.5,""
"01-701-1015","Clinical Site 701","701","F","WHITE",63,"Placebo","Week 6",6,"QTCF","QTcF","msec",320.6,328.4,-7.8,""
"01-701-1015","Clinical Site 701","701","F","WHITE",63,"Placebo","Week 8",8,"QTCF","QTcF","msec",395.2,328.4,66.8,""
"01-701-1015","Clinical Site 701","701","F","WHITE",63,"Placebo","Week 12",12,"QTCF","QTcF","msec",393.9,328.4,65.5,""
"01-701-1015","Clinical Site 701","701","F","WHITE",63,"Placebo","Week 16",16,"QTCF","QTcF","msec",396,328.4,67.6,""
"01-701-1015","Clinical Site 701","701","F","WHITE",63,"Placebo","Week 20",20,"QTCF","QTcF","msec",388.1,328.4,59.7,""
"01-701-1015","Clinical Site 701","701","F","WHITE",63,"Placebo","Week 24",24,"QTCF","QTcF","msec",367.2,328.4,38.8,""
"01-701-1015","Clinical Site 701","701","F","WHITE",63,"Placebo","Week 26",26,"QTCF","QTcF","msec",366,328.4,37.6,""
"01-701-1023","Clinical Site 701","701","M","WHITE",64,"Placebo","Baseline",0,"QTCF","QTcF","msec",525.5,525.5,0,"Y"
"01-701-1023","Clinical Site 701","701","M","WHITE",64,"Placebo","Week 2",2,"QTCF","QTcF","msec",590.7,525.5,65.2,""
"01-701-1023","Clinical Site 701","701","M","WHITE",64,"Placebo","Week 4",4,"QTCF","QTcF","msec",527.2,525.5,1.7,""
"01-701-1028","Clinical Site 701","701","M","WHITE",71,"Xanomeline High Dose","Baseline",0,"QTCF","QTcF","msec",515.6,515.6,0,"Y"
"01-701-1028","Clinical Site 701","701","M","WHITE",71,"Xanomeline High Dose","Week 2",2,"QTCF","QTcF","msec",480.7,515.6,-34.9,""
"01-701-1028","Clinical Site 701","701","M","WHITE",71,"Xanomeline High Dose","Week 4",4,"QTCF","QTcF","msec",431.6,515.6,-84,""
"01-701-1028","Clinical Site 701","701","M","WHITE",71,"Xanomeline High Dose","Week 6",6,"QTCF","QTcF","msec",404.6,515.6,-111,""
"01-701-1028","Clinical Site 701","701","M","WHITE",71,"Xanomeline High Dose","Week 8",8,"QTCF","QTcF","msec",473.1,515.6,-42.5,""
"01-701-1028","Clinical Site 701","701","M","WHITE",71,"Xanomeline High Dose","Week 12",12,"QTCF","QTcF","msec",446.5,515.6,-69.1,""
"01-701-1028","Clinical Site 701","701","M","WHITE",71,"Xanomeline High Dose","Week 16",16,"QTCF","QTcF","msec",450,515.6,-65.6,""
"01-701-1028","Clinical Site 701","701","M","WHITE",71,"Xanomeline High Dose","Week 20",20,"QTCF","QTcF","msec",474,515.6,-41.6,""
"01-701-1028","Clinical Site 701","701","M","WHITE",71,"Xanomeline High Dose","Week 24",24,"QTCF","QTcF","msec",442.8,515.6,-72.8,""
"01-701-1028","Clinical Site 701","701","M","WHITE",71,"Xanomeline High Dose","Week 26",26,"QTCF","QTcF","msec",403,515.6,-112.6,""
"01-701-1033","Clinical Site 701","701","M","WHITE",74,"Xanomeline Low Dose","Baseline",0,"QTCF","QTcF","msec",483.8,483.8,0,"Y"
"01-701-1033","Clinical Site 701","701","M","WHITE",74,"Xanomeline Low Dose","Week 2",2,"QTCF","QTcF","msec",501.2,483.8,17.4,""
"01-701-1033","Clinical Site 701","701","M","WHITE",74,"Xanomeline Low Dose","Week 4",4,"QTCF","QTcF","msec",440.3,483.8,-43.5,""
"01-701-1034","Clinical Site 701","701","F","WHITE",77,"Xanomeline High Dose","Baseline",0,"QTCF","QTcF","msec",389.5,389.5,0,"Y"
"01-701-1034","Clinical Site 701","701","F","WHITE",77,"Xanomeline High Dose","Week 2",2,"QTCF","QTcF","msec",548,389.5,158.5,""
"01-701-1034","Clinical Site 701","701","F","WHITE",77,"Xanomeline High Dose","Week 4",4,"QTCF","QTcF","msec",482.2,389.5,92.7,""
"01-701-1034","Clinical Site 701","701","F","WHITE",77,"Xanomeline High Dose","Week 6",6,"QTCF","QTcF","msec",401.4,389.5,11.9,""
"01-701-1034","Clinical Site 701","701","F","WHITE",77,"Xanomeline High Dose","Week 8",8,"QTCF","QTcF","msec",478,389.5,88.5,""
"01-701-1034","Clinical Site 701","701","F","WHITE",77,"Xanomeline High Dose","Week 12",12,"QTCF","QTcF","msec",439.8,389.5,50.3,""
"01-701-1034","Clinical Site 701","701","F","WHITE",77,"Xanomeline High Dose","Week 16",16,"QTCF","QTcF","msec",559.8,389.5,170.3,""
"01-701-1034","Clinical Site 701","701","F","WHITE",77,"Xanomeline High Dose","Week 20",20,"QTCF","QTcF","msec",527.7,389.5,138.2,""
"01-701-1034","Clinical Site 701","701","F","WHITE",77,"Xanomeline High Dose","Week 24",24,"QTCF","QTcF","msec",568.4,389.5,178.9,""
"01-701-1034","Clinical Site 701","701","F","WHITE",77,"Xanomeline High Dose","Week 26",26,"QTCF","QTcF","msec",431.1,389.5,41.6,""
"01-701-1047","Clinical Site 701","701","F","WHITE",85,"Placebo","Baseline",0,"QTCF","QTcF","msec",361.9,361.9,0,"Y"
"01-701-1047","Clinical Site 701","701","F","WHITE",85,"Placebo","Week 2",2,"QTCF","QTcF","msec",445.9,361.9,84,""
"01-701-1047","Clinical Site 701","701","F","WHITE",85,"Placebo","Week 4",4,"QTCF","QTcF","msec",452.6,361.9,90.7,""
"01-701-1097","Clinical Site 701","701","M","WHITE",68,"Xanomeline Low Dose","Baseline",0,"QTCF","QTcF","msec",432,432,0,"Y"
"01-701-1097","Clinical Site 701","701","M","WHITE",68,"Xanomeline Low Dose","Week 2",2,"QTCF","QTcF","msec",445.9,432,13.9,""
"01-701-1097","Clinical Site 701","701","M","WHITE",68,"Xanomeline Low Dose","Week 4",4,"QTCF","QTcF","msec",400.9,432,-31.1,""
"01-701-1097","Clinical Site 701","701","M","WHITE",68,"Xanomeline Low Dose","Week 6",6,"QTCF","QTcF","msec",416.9,432,-15.1,""
"01-701-1097","Clinical Site 701","701","M","WHITE",68,"Xanomeline Low Dose","Week 8",8,"QTCF","QTcF","msec",434.5,432,2.5,""
"01-701-1097","Clinical Site 701","701","M","WHITE",68,"Xanomeline Low Dose","Week 12",12,"QTCF","QTcF","msec",439,432,7,""
"01-701-1097","Clinical Site 701","701","M","WHITE",68,"Xanomeline Low Dose","Week 16",16,"QTCF","QTcF","msec",435.7,432,3.7,""
"01-701-1097","Clinical Site 701","701","M","WHITE",68,"Xanomeline Low Dose","Week 20",20,"QTCF","QTcF","msec",404.2,432,-27.8,""
"01-701-1097","Clinical Site 701","701","M","WHITE",68,"Xanomeline Low Dose","Week 24",24,"QTCF","QTcF","msec",511.5,432,79.5,""
"01-701-1097","Clinical Site 701","701","M","WHITE",68,"Xanomeline Low Dose","Week 26",26,"QTCF","QTcF","msec",427.1,432,-4.9,""
"01-701-1111","Clinical Site 701","701","F","WHITE",81,"Xanomeline Low Dose","Baseline",0,"QTCF","QTcF","msec",432.2,432.2,0,"Y"
"01-701-1111","Clinical Site 701","701","F","WHITE",81,"Xanomeline Low Dose","Week 2",2,"QTCF","QTcF","msec",404.3,432.2,-27.9,""
"01-701-1115","Clinical Site 701","701","M","WHITE",84,"Xanomeline Low Dose","Baseline",0,"QTCF","QTcF","msec",468.6,468.6,0,"Y"
"01-701-1115","Clinical Site 701","701","M","WHITE",84,"Xanomeline Low Dose","Week 2",2,"QTCF","QTcF","msec",454.8,468.6,-13.8,""
"01-701-1115","Clinical Site 701","701","M","WHITE",84,"Xanomeline Low Dose","Week 4",4,"QTCF","QTcF","msec",386.5,468.6,-82.1,""
"01-701-1115","Clinical Site 701","701","M","WHITE",84,"Xanomeline Low Dose","Week 6",6,"QTCF","QTcF","msec",440.5,468.6,-28.1,""
"01-701-1115","Clinical Site 701","701","M","WHITE",84,"Xanomeline Low Dose","Week 8",8,"QTCF","QTcF","msec",429.1,468.6,-39.5,""
"01-701-1118","Clinical Site 701","701","M","WHITE",52,"Placebo","Baseline",0,"QTCF","QTcF","msec",509.5,509.5,0,"Y"
"01-701-1118","Clinical Site 701","701","M","WHITE",52,"Placebo","Week 2",2,"QTCF","QTcF","msec",497.4,509.5,-12.1,""
"01-701-1118","Clinical Site 701","701","M","WHITE",52,"Placebo","Week 4",4,"QTCF","QTcF","msec",459.8,509.5,-49.7,""
"01-701-1118","Clinical Site 701","701","M","WHITE",52,"Placebo","Week 6",6,"QTCF","QTcF","msec",398.9,509.5,-110.6,""
"01-701-1118","Clinical Site 701","701","M","WHITE",52,"Placebo","Week 8",8,"QTCF","QTcF","msec",412.9,509.5,-96.6,""
"01-701-1118","Clinical Site 701","701","M","WHITE",52,"Placebo","Week 12",12,"QTCF","QTcF","msec",465.4,509.5,-44.1,""
"01-701-1118","Clinical Site 701","701","M","WHITE",52,"Placebo","Week 16",16,"QTCF","QTcF","msec",454.8,509.5,-54.7,""
"01-701-1118","Clinical Site 701","701","M","WHITE",52,"Placebo","Week 20",20,"QTCF","QTcF","msec",522.8,509.5,13.3,""
"01-701-1118","Clinical Site 701","701","M","WHITE",52,"Placebo","Week 24",24,"QTCF","QTcF","msec",458.5,509.5,-51,""
"01-701-1118","Clinical Site 701","701","M","WHITE",52,"Placebo","Week 26",26,"QTCF","QTcF","msec",456,509.5,-53.5,""
"01-701-1130","Clinical Site 701","701","M","WHITE",84,"Placebo","Baseline",0,"QTCF","QTcF","msec",467.4,467.4,0,"Y"
"01-701-1130","Clinical Site 701","701","M","WHITE",84,"Placebo","Week 2",2,"QTCF","QTcF","msec",450.4,467.4,-17,""
"01-701-1130","Clinical Site 701","701","M","WHITE",84,"Placebo","Week 4",4,"QTCF","QTcF","msec",476.1,467.4,8.7,""
"01-701-1130","Clinical Site 701","701","M","WHITE",84,"Placebo","Week 6",6,"QTCF","QTcF","msec",384,467.4,-83.4,""
"01-701-1130","Clinical Site 701","701","M","WHITE",84,"Placebo","Week 8",8,"QTCF","QTcF","msec",473.7,467.4,6.3,""
"01-701-1130","Clinical Site 701","701","M","WHITE",84,"Placebo","Week 12",12,"QTCF","QTcF","msec",419.1,467.4,-48.3,""
"01-701-1130","Clinical Site 701","701","M","WHITE",84,"Placebo","Week 16",16,"QTCF","QTcF","msec",468.3,467.4,0.9,""
"01-701-1130","Clinical Site 701","701","M","WHITE",84,"Placebo","Week 20",20,"QTCF","QTcF","msec",405.4,467.4,-62,""
"01-701-1130","Clinical Site 701","701","M","WHITE",84,"Placebo","Week 24",24,"QTCF","QTcF","msec",456,467.4,-11.4,""
"01-701-1130","Clinical Site 701","701","M","WHITE",84,"Placebo","Week 26",26,"QTCF","QTcF","msec",426.9,467.4,-40.5,""
"01-701-1133","Clinical Site 701","701","F","WHITE",81,"Xanomeline High Dose","Baseline",0,"QTCF","QTcF","msec",372.7,372.7,0,"Y"
"01-701-1133","Clinical Site 701","701","F","WHITE",81,"Xanomeline High Dose","Week 2",2,"QTCF","QTcF","msec",334.1,372.7,-38.6,""
"01-701-1133","Clinical Site 701","701","F","WHITE",81,"Xanomeline High Dose","Week 4",4,"QTCF","QTcF","msec",423,372.7,50.3,""
"01-701-1133","Clinical Site 701","701","F","WHITE",81,"Xanomeline High Dose","Week 6",6,"QTCF","QTcF","msec",335.4,372.7,-37.3,""
"01-701-1133","Clinical Site 701","701","F","WHITE",81,"Xanomeline High Dose","Week 8",8,"QTCF","QTcF","msec",348,372.7,-24.7,""
"01-701-1133","Clinical Site 701","701","F","WHITE",81,"Xanomeline High Dose","Week 12",12,"QTCF","QTcF","msec",368.3,372.7,-4.4,""
"01-701-1133","Clinical Site 701","701","F","WHITE",81,"Xanomeline High Dose","Week 16",16,"QTCF","QTcF","msec",353.7,372.7,-19,""
"01-701-1133","Clinical Site 701","701","F","WHITE",81,"Xanomeline High Dose","Week 20",20,"QTCF","QTcF","msec",502.1,372.7,129.4,""
"01-701-1133","Clinical Site 701","701","F","WHITE",81,"Xanomeline High Dose","Week 24",24,"QTCF","QTcF","msec",430.6,372.7,57.9,""
"01-701-1133","Clinical Site 701","701","F","WHITE",81,"Xanomeline High Dose","Week 26",26,"QTCF","QTcF","msec",404.6,372.7,31.9,""
"01-701-1146","Clinical Site 701","701","F","WHITE",75,"Xanomeline High Dose","Baseline",0,"QTCF","QTcF","msec",317.5,317.5,0,"Y"
"01-701-1146","Clinical Site 701","701","F","WHITE",75,"Xanomeline High Dose","Week 2",2,"QTCF","QTcF","msec",345.8,317.5,28.3,""
"01-701-1146","Clinical Site 701","701","F","WHITE",75,"Xanomeline High Dose","Week 4",4,"QTCF","QTcF","msec",344.1,317.5,26.6,""
"01-701-1146","Clinical Site 701","701","F","WHITE",75,"Xanomeline High Dose","Week 6",6,"QTCF","QTcF","msec",320.3,317.5,2.8,""
"01-701-1148","Clinical Site 701","701","M","WHITE",57,"Xanomeline High Dose","Baseline",0,"QTCF","QTcF","msec",415.3,415.3,0,"Y"
"01-701-1148","Clinical Site 701","701","M","WHITE",57,"Xanomeline High Dose","Week 2",2,"QTCF","QTcF","msec",444,415.3,28.7,""
"01-701-1148","Clinical Site 701","701","M","WHITE",57,"Xanomeline High Dose","Week 4",4,"QTCF","QTcF","msec",439.9,415.3,24.6,""
"01-701-1148","Clinical Site 701","701","M","WHITE",57,"Xanomeline High Dose","Week 6",6,"QTCF","QTcF","msec",458.5,415.3,43.2,""
"01-701-1148","Clinical Site 701","701","M","WHITE",57,"Xanomeline High Dose","Week 8",8,"QTCF","QTcF","msec",473.7,415.3,58.4,""
"01-701-1148","Clinical Site 701","701","M","WHITE",57,"Xanomeline High Dose","Week 12",12,"QTCF","QTcF","msec",401.1,415.3,-14.2,""
"01-701-1148","Clinical Site 701","701","M","WHITE",57,"Xanomeline High Dose","Week 16",16,"QTCF","QTcF","msec",408,415.3,-7.3,""
"01-701-1148","Clinical Site 701","701","M","WHITE",57,"Xanomeline High Dose","Week 20",20,"QTCF","QTcF","msec",394.7,415.3,-20.6,""
"01-701-1148","Clinical Site 701","701","M","WHITE",57,"Xanomeline High Dose","Week 24",24,"QTCF","QTcF","msec",381.9,415.3,-33.4,""
"01-701-1148","Clinical Site 701","701","M","WHITE",57,"Xanomeline High Dose","Week 26",26,"QTCF","QTcF","msec",412.5,415.3,-2.8,""
"01-701-1153","Clinical Site 701","701","F","WHITE",79,"Placebo","Baseline",0,"QTCF","QTcF","msec",402.7,402.7,0,"Y"
"01-701-1153","Clinical Site 701","701","F","WHITE",79,"Placebo","Week 2",2,"QTCF","QTcF","msec",401.7,402.7,-1,""
"01-701-1153","Clinical Site 701","701","F","WHITE",79,"Placebo","Week 4",4,"QTCF","QTcF","msec",363.5,402.7,-39.2,""
"01-701-1153","Clinical Site 701","701","F","WHITE",79,"Placebo","Week 6",6,"QTCF","QTcF","msec",365.4,402.7,-37.3,""
"01-701-1153","Clinical Site 701","701","F","WHITE",79,"Placebo","Week 8",8,"QTCF","QTcF","msec",360.3,402.7,-42.4,""
"01-701-1153","Clinical Site 701","701","F","WHITE",79,"Placebo","Week 12",12,"QTCF","QTcF","msec",416,402.7,13.3,""
"01-701-1153","Clinical Site 701","701","F","WHITE",79,"Placebo","Week 16",16,"QTCF","QTcF","msec",398.9,402.7,-3.8,""
"01-701-1153","Clinical Site 701","701","F","WHITE",79,"Placebo","Week 20",20,"QTCF","QTcF","msec",337.8,402.7,-64.9,""
"01-701-1153","Clinical Site 701","701","F","WHITE",79,"Placebo","Week 24",24,"QTCF","QTcF","msec",353.9,402.7,-48.8,""
"01-701-1153","Clinical Site 701","701","F","WHITE",79,"Placebo","Week 26",26,"QTCF","QTcF","msec",376.5,402.7,-26.2,""
"01-701-1180","Clinical Site 701","701","M","WHITE",56,"Xanomeline High Dose","Baseline",0,"QTCF","QTcF","msec",470.7,470.7,0,"Y"
"01-701-1180","Clinical Site 701","701","M","WHITE",56,"Xanomeline High Dose","Week 2",2,"QTCF","QTcF","msec",544.2,470.7,73.5,""
"01-701-1180","Clinical Site 701","701","M","WHITE",56,"Xanomeline High Dose","Week 4",4,"QTCF","QTcF","msec",491.8,470.7,21.1,""
"01-701-1180","Clinical Site 701","701","M","WHITE",56,"Xanomeline High Dose","Week 6",6,"QTCF","QTcF","msec",498.3,470.7,27.6,""
"01-701-1181","Clinical Site 701","701","F","WHITE",79,"Xanomeline Low Dose","Baseline",0,"QTCF","QTcF","msec",456.8,456.8,0,"Y"
"01-701-1181","Clinical Site 701","701","F","WHITE",79,"Xanomeline Low Dose","Week 2",2,"QTCF","QTcF","msec",400.4,456.8,-56.4,""
"01-701-1188","Clinical Site 701","701","M","WHITE",71,"Xanomeline Low Dose","Baseline",0,"QTCF","QTcF","msec",460.1,460.1,0,"Y"
"01-701-1188","Clinical Site 701","701","M","WHITE",71,"Xanomeline Low Dose","Week 2",2,"QTCF","QTcF","msec",524.9,460.1,64.8,""
"01-701-1188","Clinical Site 701","701","M","WHITE",71,"Xanomeline Low Dose","Week 4",4,"QTCF","QTcF","msec",487.9,460.1,27.8,""
"01-701-1188","Clinical Site 701","701","M","WHITE",71,"Xanomeline Low Dose","Week 6",6,"QTCF","QTcF","msec",456,460.1,-4.1,""
"01-701-1192","Clinical Site 701","701","F","WHITE",80,"Xanomeline Low Dose","Baseline",0,"QTCF","QTcF","msec",540.5,540.5,0,"Y"
"01-701-1192","Clinical Site 701","701","F","WHITE",80,"Xanomeline Low Dose","Week 2",2,"QTCF","QTcF","msec",448.2,540.5,-92.3,""
"01-701-1192","Clinical Site 701","701","F","WHITE",80,"Xanomeline Low Dose","Week 4",4,"QTCF","QTcF","msec",528.1,540.5,-12.4,""
"01-701-1192","Clinical Site 701","701","F","WHITE",80,"Xanomeline Low Dose","Week 6",6,"QTCF","QTcF","msec",454.4,540.5,-86.1,""
"01-701-1192","Clinical Site 701","701","F","WHITE",80,"Xanomeline Low Dose","Week 8",8,"QTCF","QTcF","msec",433,540.5,-107.5,""
"01-701-1192","Clinical Site 701","701","F","WHITE",80,"Xanomeline Low Dose","Week 12",12,"QTCF","QTcF","msec",424.5,540.5,-116,""
"01-701-1192","Clinical Site 701","701","F","WHITE",80,"Xanomeline Low Dose","Week 16",16,"QTCF","QTcF","msec",490.9,540.5,-49.6,""
"01-701-1192","Clinical Site 701","701","F","WHITE",80,"Xanomeline Low Dose","Week 20",20,"QTCF","QTcF","msec",360,540.5,-180.5,""
"01-701-1192","Clinical Site 701","701","F","WHITE",80,"Xanomeline Low Dose","Week 24",24,"QTCF","QTcF","msec",568.3,540.5,27.8,""
"01-701-1192","Clinical Site 701","701","F","WHITE",80,"Xanomeline Low Dose","Week 26",26,"QTCF","QTcF","msec",552.7,540.5,12.2,""
"01-701-1203","Clinical Site 701","701","F","BLACK OR AFRICAN AMERICAN",81,"Placebo","Baseline",0,"QTCF","QTcF","msec",235.9,235.9,0,"Y"
"01-701-1203","Clinical Site 701","701","F","BLACK OR AFRICAN AMERICAN",81,"Placebo","Week 2",2,"QTCF","QTcF","msec",271,235.9,35.1,""
"01-701-1203","Clinical Site 701","701","F","BLACK OR AFRICAN AMERICAN",81,"Placebo","Week 4",4,"QTCF","QTcF","msec",241.8,235.9,5.9,""
"01-701-1203","Clinical Site 701","701","F","BLACK OR AFRICAN AMERICAN",81,"Placebo","Week 6",6,"QTCF","QTcF","msec",351.2,235.9,115.3,""
"01-701-1203","Clinical Site 701","701","F","BLACK OR AFRICAN AMERICAN",81,"Placebo","Week 8",8,"QTCF","QTcF","msec",330.2,235.9,94.3,""
"01-701-1203","Clinical Site 701","701","F","BLACK OR AFRICAN AMERICAN",81,"Placebo","Week 12",12,"QTCF","QTcF","msec",293.2,235.9,57.3,""
"01-701-1203","Clinical Site 701","701","F","BLACK OR AFRICAN AMERICAN",81,"Placebo","Week 16",16,"QTCF","QTcF","msec",386.1,235.9,150.2,""
"01-701-1203","Clinical Site 701","701","F","BLACK OR AFRICAN AMERICAN",81,"Placebo","Week 20",20,"QTCF","QTcF","msec",322.4,235.9,86.5,""
"01-701-1203","Clinical Site 701","701","F","BLACK OR AFRICAN AMERICAN",81,"Placebo","Week 24",24,"QTCF","QTcF","msec",248.4,235.9,12.5,""
"01-701-1203","Clinical Site 701","701","F","BLACK OR AFRICAN AMERICAN",81,"Placebo","Week 26",26,"QTCF","QTcF","msec",295.4,235.9,59.5,""
"01-701-1211","Clinical Site 701","701","F","WHITE",76,"Xanomeline Low Dose","Baseline",0,"QTCF","QTcF","msec",377.5,377.5,0,"Y"
"01-701-1211","Clinical Site 701","701","F","WHITE",76,"Xanomeline Low Dose","Week 2",2,"QTCF","QTcF","msec",373.2,377.5,-4.3,""
"01-701-1211","Clinical Site 701","701","F","WHITE",76,"Xanomeline Low Dose","Week 4",4,"QTCF","QTcF","msec",340.7,377.5,-36.8,""
"01-701-1211","Clinical Site 701","701","F","WHITE",76,"Xanomeline Low Dose","Week 6",6,"QTCF","QTcF","msec",365.9,377.5,-11.6,""
"01-701-1211","Clinical Site 701","701","F","WHITE",76,"Xanomeline Low Dose","Week 8",8,"QTCF","QTcF","msec",363.6,377.5,-13.9,""
"01-701-1234","Clinical Site 701","701","M","WHITE",69,"Placebo","Baseline",0,"QTCF","QTcF","msec",450.9,450.9,0,"Y"
"01-701-1234","Clinical Site 701","701","M","WHITE",69,"Placebo","Week 2",2,"QTCF","QTcF","msec",471.7,450.9,20.8,""
"01-701-1234","Clinical Site 701","701","M","WHITE",69,"Placebo","Week 4",4,"QTCF","QTcF","msec",463.4,450.9,12.5,""
"01-701-1234","Clinical Site 701","701","M","WHITE",69,"Placebo","Week 6",6,"QTCF","QTcF","msec",440.3,450.9,-10.6,""
"01-701-1234","Clinical Site 701","701","M","WHITE",69,"Placebo","Week 8",8,"QTCF","QTcF","msec",429,450.9,-21.9,""
"01-701-1234","Clinical Site 701","701","M","WHITE",69,"Placebo","Week 12",12,"QTCF","QTcF","msec",454.8,450.9,3.9,""
"01-701-1234","Clinical Site 701","701","M","WHITE",69,"Placebo","Week 16",16,"QTCF","QTcF","msec",454.7,450.9,3.8,""
"01-701-1234","Clinical Site 701","701","M","WHITE",69,"Placebo","Week 20",20,"QTCF","QTcF","msec",444,450.9,-6.9,""
"01-701-1234","Clinical Site 701","701","M","WHITE",69,"Placebo","Week 24",24,"QTCF","QTcF","msec",429.6,450.9,-21.3,""
"01-701-1234","Clinical Site 701","701","M","WHITE",69,"Placebo","Week 26",26,"QTCF","QTcF","msec",525.1,450.9,74.2,""
"01-701-1239","Clinical Site 701","701","M","WHITE",56,"Xanomeline High Dose","Baseline",0,"QTCF","QTcF","msec",581.6,581.6,0,"Y"
"01-701-1239","Clinical Site 701","701","M","WHITE",56,"Xanomeline High Dose","Week 2",2,"QTCF","QTcF","msec",556.9,581.6,-24.7,""
"01-701-1239","Clinical Site 701","701","M","WHITE",56,"Xanomeline High Dose","Week 4",4,"QTCF","QTcF","msec",555.8,581.6,-25.8,""
"01-701-1239","Clinical Site 701","701","M","WHITE",56,"Xanomeline High Dose","Week 6",6,"QTCF","QTcF","msec",557,581.6,-24.6,""
"01-701-1239","Clinical Site 701","701","M","WHITE",56,"Xanomeline High Dose","Week 8",8,"QTCF","QTcF","msec",570.5,581.6,-11.1,""
"01-701-1239","Clinical Site 701","701","M","WHITE",56,"Xanomeline High Dose","Week 12",12,"QTCF","QTcF","msec",524.3,581.6,-57.3,""
"01-701-1239","Clinical Site 701","701","M","WHITE",56,"Xanomeline High Dose","Week 16",16,"QTCF","QTcF","msec",563.7,581.6,-17.9,""
"01-701-1239","Clinical Site 701","701","M","WHITE",56,"Xanomeline High Dose","Week 20",20,"QTCF","QTcF","msec",547.7,581.6,-33.9,""
"01-701-1239","Clinical Site 701","701","M","WHITE",56,"Xanomeline High Dose","Week 24",24,"QTCF","QTcF","msec",553.2,581.6,-28.4,""
"01-701-1239","Clinical Site 701","701","M","WHITE",56,"Xanomeline High Dose","Week 26",26,"QTCF","QTcF","msec",530.6,581.6,-51,""
"01-701-1275","Clinical Site 701","701","M","AMERICAN INDIAN OR ALASKA NATIVE",61,"Xanomeline High Dose","Baseline",0,"QTCF","QTcF","msec",515,515,0,"Y"
"01-701-1275","Clinical Site 701","701","M","AMERICAN INDIAN OR ALASKA NATIVE",61,"Xanomeline High Dose","Week 2",2,"QTCF","QTcF","msec",416.9,515,-98.1,""
"01-701-1275","Clinical Site 701","701","M","AMERICAN INDIAN OR ALASKA NATIVE",61,"Xanomeline High Dose","Week 4",4,"QTCF","QTcF","msec",554.9,515,39.9,""
"01-701-1275","Clinical Site 701","701","M","AMERICAN INDIAN OR ALASKA NATIVE",61,"Xanomeline High Dose","Week 6",6,"QTCF","QTcF","msec",473.5,515,-41.5,""
"01-701-1275","Clinical Site 701","701","M","AMERICAN INDIAN OR ALASKA NATIVE",61,"Xanomeline High Dose","Week 8",8,"QTCF","QTcF","msec",516.8,515,1.8,""
"01-701-1275","Clinical Site 701","701","M","AMERICAN INDIAN OR ALASKA NATIVE",61,"Xanomeline High Dose","Week 12",12,"QTCF","QTcF","msec",449.1,515,-65.9,""
"01-701-1275","Clinical Site 701","701","M","AMERICAN INDIAN OR ALASKA NATIVE",61,"Xanomeline High Dose","Week 16",16,"QTCF","QTcF","msec",404.2,515,-110.8,""
"01-701-1287","Clinical Site 701","701","F","WHITE",56,"Xanomeline High Dose","Baseline",0,"QTCF","QTcF","msec",483.3,483.3,0,"Y"
"01-701-1287","Clinical Site 701","701","F","WHITE",56,"Xanomeline High Dose","Week 2",2,"QTCF","QTcF","msec",496.7,483.3,13.4,""
"01-701-1287","Clinical Site 701","701","F","WHITE",56,"Xanomeline High Dose","Week 4",4,"QTCF","QTcF","msec",485.2,483.3,1.9,""
"01-701-1287","Clinical Site 701","701","F","WHITE",56,"Xanomeline High Dose","Week 6",6,"QTCF","QTcF","msec",521.7,483.3,38.4,""
"01-701-1287","Clinical Site 701","701","F","WHITE",56,"Xanomeline High Dose","Week 8",8,"QTCF","QTcF","msec",460.2,483.3,-23.1,""
"01-701-1287","Clinical Site 701","701","F","WHITE",56,"Xanomeline High Dose","Week 12",12,"QTCF","QTcF","msec",454.6,483.3,-28.7,""
"01-701-1287","Clinical Site 701","701","F","WHITE",56,"Xanomeline High Dose","Week 16",16,"QTCF","QTcF","msec",554.7,483.3,71.4,""
"01-701-1287","Clinical Site 701","701","F","WHITE",56,"Xanomeline High Dose","Week 20",20,"QTCF","QTcF","msec",489,483.3,5.7,""
"01-701-1287","Clinical Site 701","701","F","WHITE",56,"Xanomeline High Dose","Week 24",24,"QTCF","QTcF","msec",489,483.3,5.7,""
"01-701-1287","Clinical Site 701","701","F","WHITE",56,"Xanomeline High Dose","Week 26",26,"QTCF","QTcF","msec",409.4,483.3,-73.9,""
"01-701-1294","Clinical Site 701","701","M","WHITE",67,"Xanomeline Low Dose","Baseline",0,"QTCF","QTcF","msec",489.6,489.6,0,"Y"
"01-701-1294","Clinical Site 701","701","M","WHITE",67,"Xanomeline Low Dose","Week 2",2,"QTCF","QTcF","msec",492.5,489.6,2.9,""
"01-701-1294","Clinical Site 701","701","M","WHITE",67,"Xanomeline Low Dose","Week 4",4,"QTCF","QTcF","msec",501.2,489.6,11.6,""
"01-701-1294","Clinical Site 701","701","M","WHITE",67,"Xanomeline Low Dose","Week 6",6,"QTCF","QTcF","msec",483.8,489.6,-5.8,""
"01-701-1294","Clinical Site 701","701","M","WHITE",67,"Xanomeline Low Dose","Week 8",8,"QTCF","QTcF","msec",434.5,489.6,-55.1,""
"01-701-1294","Clinical Site 701","701","M","WHITE",67,"Xanomeline Low Dose","Week 12",12,"QTCF","QTcF","msec",486.6,489.6,-3,""
"01-701-1302","Clinical Site 701","701","M","WHITE",61,"Xanomeline High Dose","Baseline",0,"QTCF","QTcF","msec",440.3,440.3,0,"Y"
"01-701-1302","Clinical Site 701","701","M","WHITE",61,"Xanomeline High Dose","Week 2",2,"QTCF","QTcF","msec",452.7,440.3,12.4,""
"01-701-1302","Clinical Site 701","701","M","WHITE",61,"Xanomeline High Dose","Week 4",4,"QTCF","QTcF","msec",434.8,440.3,-5.5,""
"01-701-1302","Clinical Site 701","701","M","WHITE",61,"Xanomeline High Dose","Week 6",6,"QTCF","QTcF","msec",427.5,440.3,-12.8,""
"01-701-1302","Clinical Site 701","701","M","WHITE",61,"Xanomeline High Dose","Week 8",8,"QTCF","QTcF","msec",467.1,440.3,26.8,""
"01-701-1302","Clinical Site 701","701","M","WHITE",61,"Xanomeline High Dose","Week 12",12,"QTCF","QTcF","msec",437.5,440.3,-2.8,""
"01-701-1317","Clinical Site 701","701","M","WHITE",68,"Xanomeline Low Dose","Baseline",0,"QTCF","QTcF","msec",433,433,0,"Y"
"01-701-1317","Clinical Site 701","701","M","WHITE",68,"Xanomeline Low Dose","Week 2",2,"QTCF","QTcF","msec",504.2,433,71.2,""
"01-701-1317","Clinical Site 701","701","M","WHITE",68,"Xanomeline Low Dose","Week 4",4,"QTCF","QTcF","msec",414,433,-19,""
"01-701-1317","Clinical Site 701","701","M","WHITE",68,"Xanomeline Low Dose","Week 6",6,"QTCF","QTcF","msec",462.2,433,29.2,""
"01-701-1317","Clinical Site 701","701","M","WHITE",68,"Xanomeline Low Dose","Week 8",8,"QTCF","QTcF","msec",448.3,433,15.3,""
"01-701-1317","Clinical Site 701","701","M","WHITE",68,"Xanomeline Low Dose","Week 12",12,"QTCF","QTcF","msec",450,433,17,""
"01-701-1317","Clinical Site 701","701","M","WHITE",68,"Xanomeline Low Dose","Week 16",16,"QTCF","QTcF","msec",431.8,433,-1.2,""
"01-701-1317","Clinical Site 701","701","M","WHITE",68,"Xanomeline Low Dose","Week 20",20,"QTCF","QTcF","msec",452.5,433,19.5,""
"01-701-1317","Clinical Site 701","701","M","WHITE",68,"Xanomeline Low Dose","Week 24",24,"QTCF","QTcF","msec",439.8,433,6.8,""
"01-701-1317","Clinical Site 701","701","M","WHITE",68,"Xanomeline Low Dose","Week 26",26,"QTCF","QTcF","msec",422.2,433,-10.8,""
"01-701-1324","Clinical Site 701","701","M","WHITE",79,"Xanomeline Low Dose","Baseline",0,"QTCF","QTcF","msec",410.5,410.5,0,"Y"
"01-701-1324","Clinical Site 701","701","M","WHITE",79,"Xanomeline Low Dose","Week 2",2,"QTCF","QTcF","msec",353.4,410.5,-57.1,""
"01-701-1324","Clinical Site 701","701","M","WHITE",79,"Xanomeline Low Dose","Week 4",4,"QTCF","QTcF","msec",375.3,410.5,-35.2,""
"01-701-1324","Clinical Site 701","701","M","WHITE",79,"Xanomeline Low Dose","Week 6",6,"QTCF","QTcF","msec",405.5,410.5,-5,""
"01-701-1324","Clinical Site 701","701","M","WHITE",79,"Xanomeline Low Dose","Week 8",8,"QTCF","QTcF","msec",322.4,410.5,-88.1,""
"01-701-1324","Clinical Site 701","701","M","WHITE",79,"Xanomeline Low Dose","Week 12",12,"QTCF","QTcF","msec",330.2,410.5,-80.3,""
"01-701-1324","Clinical Site 701","701","M","WHITE",79,"Xanomeline Low Dose","Week 16",16,"QTCF","QTcF","msec",365.7,410.5,-44.8,""
"01-701-1324","Clinical Site 701","701","M","WHITE",79,"Xanomeline Low Dose","Week 20",20,"QTCF","QTcF","msec",341.8,410.5,-68.7,""
"01-701-1324","Clinical Site 701","701","M","WHITE",79,"Xanomeline Low Dose","Week 24",24,"QTCF","QTcF","msec",351.2,410.5,-59.3,""
"01-701-1324","Clinical Site 701","701","M","WHITE",79,"Xanomeline Low Dose","Week 26",26,"QTCF","QTcF","msec",324.4,410.5,-86.1,""
"01-701-1341","Clinical Site 701","701","M","WHITE",51,"Xanomeline Low Dose","Baseline",0,"QTCF","QTcF","msec",587.7,587.7,0,"Y"
"01-701-1341","Clinical Site 701","701","M","WHITE",51,"Xanomeline Low Dose","Week 2",2,"QTCF","QTcF","msec",606.6,587.7,18.9,""
"01-701-1341","Clinical Site 701","701","M","WHITE",51,"Xanomeline Low Dose","Week 4",4,"QTCF","QTcF","msec",506.7,587.7,-81,""
"01-701-1345","Clinical Site 701","701","F","WHITE",63,"Placebo","Baseline",0,"QTCF","QTcF","msec",349.9,349.9,0,"Y"
"01-701-1345","Clinical Site 701","701","F","WHITE",63,"Placebo","Week 2",2,"QTCF","QTcF","msec",315.4,349.9,-34.5,""
"01-701-1345","Clinical Site 701","701","F","WHITE",63,"Placebo","Week 4",4,"QTCF","QTcF","msec",253.9,349.9,-96,""
"01-701-1345","Clinical Site 701","701","F","WHITE",63,"Placebo","Week 6",6,"QTCF","QTcF","msec",291.2,349.9,-58.7,""
"01-701-1345","Clinical Site 701","701","F","WHITE",63,"Placebo","Week 8",8,"QTCF","QTcF","msec",292.4,349.9,-57.5,""
"01-701-1345","Clinical Site 701","701","F","WHITE",63,"Placebo","Week 12",12,"QTCF","QTcF","msec",333.6,349.9,-16.3,""
"01-701-1345","Clinical Site 701","701","F","WHITE",63,"Placebo","Week 16",16,"QTCF","QTcF","msec",322.1,349.9,-27.8,""
"01-701-1345","Clinical Site 701","701","F","WHITE",63,"Placebo","Week 20",20,"QTCF","QTcF","msec",325.8,349.9,-24.1,""
"01-701-1345","Clinical Site 701","701","F","WHITE",63,"Placebo","Week 24",24,"QTCF","QTcF","msec",294.3,349.9,-55.6,""
"01-701-1360","Clinical Site 701","701","M","WHITE",67,"Xanomeline Low Dose","Baseline",0,"QTCF","QTcF","msec",564,564,0,"Y"
"01-701-1360","Clinical Site 701","701","M","WHITE",67,"Xanomeline Low Dose","Week 2",2,"QTCF","QTcF","msec",498.4,564,-65.6,""
"01-701-1363","Clinical Site 701","701","F","BLACK OR AFRICAN AMERICAN",81,"Placebo","Baseline",0,"QTCF","QTcF","msec",341,341,0,"Y"
"01-701-1363","Clinical Site 701","701","F","BLACK OR AFRICAN AMERICAN",81,"Placebo","Week 2",2,"QTCF","QTcF","msec",352,341,11,""
"01-701-1363","Clinical Site 701","701","F","BLACK OR AFRICAN AMERICAN",81,"Placebo","Week 4",4,"QTCF","QTcF","msec",355.1,341,14.1,""
"01-701-1363","Clinical Site 701","701","F","BLACK OR AFRICAN AMERICAN",81,"Placebo","Week 6",6,"QTCF","QTcF","msec",310.3,341,-30.7,""
"01-701-1363","Clinical Site 701","701","F","BLACK OR AFRICAN AMERICAN",81,"Placebo","Week 8",8,"QTCF","QTcF","msec",371.6,341,30.6,""
"01-701-1363","Clinical Site 701","701","F","BLACK OR AFRICAN AMERICAN",81,"Placebo","Week 12",12,"QTCF","QTcF","msec",340.5,341,-0.5,""
"01-701-1363","Clinical Site 701","701","F","BLACK OR AFRICAN AMERICAN",81,"Placebo","Week 16",16,"QTCF","QTcF","msec",423.6,341,82.6,""
"01-701-1363","Clinical Site 701","701","F","BLACK OR AFRICAN AMERICAN",81,"Placebo","Week 20",20,"QTCF","QTcF","msec",353.7,341,12.7,""
"01-701-1363","Clinical Site 701","701","F","BLACK OR AFRICAN AMERICAN",81,"Placebo","Week 24",24,"QTCF","QTcF","msec",371.6,341,30.6,""
"01-701-1363","Clinical Site 701","701","F","BLACK OR AFRICAN AMERICAN",81,"Placebo","Week 26",26,"QTCF","QTcF","msec",266.5,341,-74.5,""
"01-701-1383","Clinical Site 701","701","F","WHITE",72,"Xanomeline High Dose","Baseline",0,"QTCF","QTcF","msec",410.8,410.8,0,"Y"
"01-701-1383","Clinical Site 701","701","F","WHITE",72,"Xanomeline High Dose","Week 2",2,"QTCF","QTcF","msec",443,410.8,32.2,""
"01-701-1383","Clinical Site 701","701","F","WHITE",72,"Xanomeline High Dose","Week 4",4,"QTCF","QTcF","msec",341.1,410.8,-69.7,""
"01-701-1383","Clinical Site 701","701","F","WHITE",72,"Xanomeline High Dose","Week 6",6,"QTCF","QTcF","msec",422.6,410.8,11.8,""
"01-701-1383","Clinical Site 701","701","F","WHITE",72,"Xanomeline High Dose","Week 8",8,"QTCF","QTcF","msec",397.9,410.8,-12.9,""
"01-701-1383","Clinical Site 701","701","F","WHITE",72,"Xanomeline High Dose","Week 12",12,"QTCF","QTcF","msec",341.5,410.8,-69.3,""
"01-701-1383","Clinical Site 701","701","F","WHITE",72,"Xanomeline High Dose","Week 16",16,"QTCF","QTcF","msec",391.6,410.8,-19.2,""
"01-701-1383","Clinical Site 701","701","F","WHITE",72,"Xanomeline High Dose","Week 20",20,"QTCF","QTcF","msec",371.5,410.8,-39.3,""
"01-701-1383","Clinical Site 701","701","F","WHITE",72,"Xanomeline High Dose","Week 24",24,"QTCF","QTcF","msec",470.5,410.8,59.7,""
"01-701-1383","Clinical Site 701","701","F","WHITE",72,"Xanomeline High Dose","Week 26",26,"QTCF","QTcF","msec",407.7,410.8,-3.1,""
"01-701-1387","Clinical Site 701","701","F","WHITE",87,"Placebo","Baseline",0,"QTCF","QTcF","msec",446,446,0,"Y"
"01-701-1387","Clinical Site 701","701","F","WHITE",87,"Placebo","Week 2",2,"QTCF","QTcF","msec",429.2,446,-16.8,""
"01-701-1392","Clinical Site 701","701","M","WHITE",78,"Placebo","Baseline",0,"QTCF","QTcF","msec",424.7,424.7,0,"Y"
"01-701-1392","Clinical Site 701","701","M","WHITE",78,"Placebo","Week 2",2,"QTCF","QTcF","msec",439.9,424.7,15.2,""
"01-701-1392","Clinical Site 701","701","M","WHITE",78,"Placebo","Week 4",4,"QTCF","QTcF","msec",466.3,424.7,41.6,""
"01-701-1392","Clinical Site 701","701","M","WHITE",78,"Placebo","Week 6",6,"QTCF","QTcF","msec",463.3,424.7,38.6,""
"01-701-1392","Clinical Site 701","701","M","WHITE",78,"Placebo","Week 8",8,"QTCF","QTcF","msec",388.2,424.7,-36.5,""
"01-701-1392","Clinical Site 701","701","M","WHITE",78,"Placebo","Week 12",12,"QTCF","QTcF","msec",417.3,424.7,-7.4,""
"01-701-1392","Clinical Site 701","701","M","WHITE",78,"Placebo","Week 16",16,"QTCF","QTcF","msec",420.3,424.7,-4.4,""
"01-701-1392","Clinical Site 701","701","M","WHITE",78,"Placebo","Week 20",20,"QTCF","QTcF","msec",418.2,424.7,-6.5,""
"01-701-1392","Clinical Site 701","701","M","WHITE",78,"Placebo","Week 24",24,"QTCF","QTcF","msec",458.5,424.7,33.8,""
"01-701-1392","Clinical Site 701","701","M","WHITE",78,"Placebo","Week 26",26,"QTCF","QTcF","msec",450.4,424.7,25.7,""
"01-701-1415","Clinical Site 701","701","M","WHITE",85,"Placebo","Baseline",0,"QTCF","QTcF","msec",400.4,400.4,0,"Y"
"01-701-1415","Clinical Site 701","701","M","WHITE",85,"Placebo","Week 2",2,"QTCF","QTcF","msec",423.3,400.4,22.9,""
"01-701-1415","Clinical Site 701","701","M","WHITE",85,"Placebo","Week 4",4,"QTCF","QTcF","msec",345.8,400.4,-54.6,""
"01-701-1415","Clinical Site 701","701","M","WHITE",85,"Placebo","Week 6",6,"QTCF","QTcF","msec",351.2,400.4,-49.2,""
"01-701-1415","Clinical Site 701","701","M","WHITE",85,"Placebo","Week 8",8,"QTCF","QTcF","msec",412.5,400.4,12.1,""
"01-701-1415","Clinical Site 701","701","M","WHITE",85,"Placebo","Week 12",12,"QTCF","QTcF","msec",386.1,400.4,-14.3,""
"01-701-1415","Clinical Site 701","701","M","WHITE",85,"Placebo","Week 16",16,"QTCF","QTcF","msec",327.6,400.4,-72.8,""
"01-701-1415","Clinical Site 701","701","M","WHITE",85,"Placebo","Week 20",20,"QTCF","QTcF","msec",417.1,400.4,16.7,""
"01-701-1415","Clinical Site 701","701","M","WHITE",85,"Placebo","Week 24",24,"QTCF","QTcF","msec",372,400.4,-28.4,""
"01-701-1415","Clinical Site 701","701","M","WHITE",85,"Placebo","Week 26",26,"QTCF","QTcF","msec",412.9,400.4,12.5,""
"01-701-1429","Clinical Site 701","701","F","WHITE",84,"Xanomeline Low Dose","Baseline",0,"QTCF","QTcF","msec",450.4,450.4,0,"Y"
"01-701-1429","Clinical Site 701","701","F","WHITE",84,"Xanomeline Low Dose","Week 2",2,"QTCF","QTcF","msec",450.4,450.4,0,""
"01-701-1429","Clinical Site 701","701","F","WHITE",84,"Xanomeline Low Dose","Week 4",4,"QTCF","QTcF","msec",449.9,450.4,-0.5,""
"01-701-1429","Clinical Site 701","701","F","WHITE",84,"Xanomeline Low Dose","Week 6",6,"QTCF","QTcF","msec",499.6,450.4,49.2,""
"01-701-1440","Clinical Site 701","701","M","WHITE",70,"Placebo","Baseline",0,"QTCF","QTcF","msec",411.9,411.9,0,"Y"
"01-701-1440","Clinical Site 701","701","M","WHITE",70,"Placebo","Week 2",2,"QTCF","QTcF","msec",500.9,411.9,89,""
"01-701-1440","Clinical Site 701","701","M","WHITE",70,"Placebo","Week 4",4,"QTCF","QTcF","msec",370.7,411.9,-41.2,""
"01-701-1440","Clinical Site 701","701","M","WHITE",70,"Placebo","Week 6",6,"QTCF","QTcF","msec",351.2,411.9,-60.7,""
"01-701-1440","Clinical Site 701","701","M","WHITE",70,"Placebo","Week 8",8,"QTCF","QTcF","msec",411.9,411.9,0,""
"01-701-1440","Clinical Site 701","701","M","WHITE",70,"Placebo","Week 12",12,"QTCF","QTcF","msec",449,411.9,37.1,""
"01-701-1440","Clinical Site 701","701","M","WHITE",70,"Placebo","Week 16",16,"QTCF","QTcF","msec",446.1,411.9,34.2,""
"01-701-1440","Clinical Site 701","701","M","WHITE",70,"Placebo","Week 20",20,"QTCF","QTcF","msec",381.1,411.9,-30.8,""
"01-701-1440","Clinical Site 701","701","M","WHITE",70,"Placebo","Week 24",24,"QTCF","QTcF","msec",434.8,411.9,22.9,""
"01-701-1440","Clinical Site 701","701","M","WHITE",70,"Placebo","Week 26",26,"QTCF","QTcF","msec",390.5,411.9,-21.4,""
"01-701-1442","Clinical Site 701","701","F","BLACK OR AFRICAN AMERICAN",57,"Xanomeline Low Dose","Baseline",0,"QTCF","QTcF","msec",451.8,451.8,0,"Y"
"01-701-1442","Clinical Site 701","701","F","BLACK OR AFRICAN AMERICAN",57,"Xanomeline Low Dose","Week 2",2,"QTCF","QTcF","msec",556.6,451.8,104.8,""
"01-701-1442","Clinical Site 701","701","F","BLACK OR AFRICAN AMERICAN",57,"Xanomeline Low Dose","Week 4",4,"QTCF","QTcF","msec",518.8,451.8,67,""
"01-701-1442","Clinical Site 701","701","F","BLACK OR AFRICAN AMERICAN",57,"Xanomeline Low Dose","Week 6",6,"QTCF","QTcF","msec",441.4,451.8,-10.4,""
"01-701-1442","Clinical Site 701","701","F","BLACK OR AFRICAN AMERICAN",57,"Xanomeline Low Dose","Week 8",8,"QTCF","QTcF","msec",435.7,451.8,-16.1,""
"01-701-1442","Clinical Site 701","701","F","BLACK OR AFRICAN AMERICAN",57,"Xanomeline Low Dose","Week 12",12,"QTCF","QTcF","msec",461.1,451.8,9.3,""
"01-701-1442","Clinical Site 701","701","F","BLACK OR AFRICAN AMERICAN",57,"Xanomeline Low Dose","Week 16",16,"QTCF","QTcF","msec",425.4,451.8,-26.4,""
"01-701-1442","Clinical Site 701","701","F","BLACK OR AFRICAN AMERICAN",57,"Xanomeline Low Dose","Week 20",20,"QTCF","QTcF","msec",498.3,451.8,46.5,""
"01-701-1442","Clinical Site 701","701","F","BLACK OR AFRICAN AMERICAN",57,"Xanomeline Low Dose","Week 24",24,"QTCF","QTcF","msec",417.3,451.8,-34.5,""
"01-701-1442","Clinical Site 701","701","F","BLACK OR AFRICAN AMERICAN",57,"Xanomeline Low Dose","Week 26",26,"QTCF","QTcF","msec",531.7,451.8,79.9,""
"01-701-1444","Clinical Site 701","701","M","WHITE",63,"Xanomeline High Dose","Baseline",0,"QTCF","QTcF","msec",545.6,545.6,0,"Y"
"01-701-1444","Clinical Site 701","701","M","WHITE",63,"Xanomeline High Dose","Week 2",2,"QTCF","QTcF","msec",542.3,545.6,-3.3,""
"01-701-1444","Clinical Site 701","701","M","WHITE",63,"Xanomeline High Dose","Week 4",4,"QTCF","QTcF","msec",527.7,545.6,-17.9,""
"01-701-1444","Clinical Site 701","701","M","WHITE",63,"Xanomeline High Dose","Week 6",6,"QTCF","QTcF","msec",492,545.6,-53.6,""
"01-702-1082","Clinical Site 702","702","F","WHITE",84,"Xanomeline Low Dose","Baseline",0,"QTCF","QTcF","msec",415.5,415.5,0,"Y"
"01-702-1082","Clinical Site 702","702","F","WHITE",84,"Xanomeline Low Dose","Week 2",2,"QTCF","QTcF","msec",458.4,415.5,42.9,""
"01-702-1082","Clinical Site 702","702","F","WHITE",84,"Xanomeline Low Dose","Week 4",4,"QTCF","QTcF","msec",449.1,415.5,33.6,""
"01-702-1082","Clinical Site 702","702","F","WHITE",84,"Xanomeline Low Dose","Week 6",6,"QTCF","QTcF","msec",340.5,415.5,-75,""
"01-702-1082","Clinical Site 702","702","F","WHITE",84,"Xanomeline Low Dose","Week 8",8,"QTCF","QTcF","msec",462.3,415.5,46.8,""
"01-703-1042","Clinical Site 703","703","M","WHITE",64,"Placebo","Baseline",0,"QTCF","QTcF","msec",336,336,0,"Y"
"01-703-1042","Clinical Site 703","703","M","WHITE",64,"Placebo","Week 2",2,"QTCF","QTcF","msec",422.7,336,86.7,""
"01-703-1042","Clinical Site 703","703","M","WHITE",64,"Placebo","Week 4",4,"QTCF","QTcF","msec",420,336,84,""
"01-703-1042","Clinical Site 703","703","M","WHITE",64,"Placebo","Week 6",6,"QTCF","QTcF","msec",462.3,336,126.3,""
"01-703-1042","Clinical Site 703","703","M","WHITE",64,"Placebo","Week 8",8,"QTCF","QTcF","msec",480.8,336,144.8,""
"01-703-1042","Clinical Site 703","703","M","WHITE",64,"Placebo","Week 12",12,"QTCF","QTcF","msec",483.3,336,147.3,""
"01-703-1042","Clinical Site 703","703","M","WHITE",64,"Placebo","Week 16",16,"QTCF","QTcF","msec",409,336,73,""
"01-703-1042","Clinical Site 703","703","M","WHITE",64,"Placebo","Week 20",20,"QTCF","QTcF","msec",487.1,336,151.1,""
"01-703-1042","Clinical Site 703","703","M","WHITE",64,"Placebo","Week 24",24,"QTCF","QTcF","msec",510.1,336,174.1,""
"01-703-1042","Clinical Site 703","703","M","WHITE",64,"Placebo","Week 26",26,"QTCF","QTcF","msec",504.5,336,168.5,""
"01-703-1076","Clinical Site 703","703","M","WHITE",69,"Xanomeline High Dose","Baseline",0,"QTCF","QTcF","msec",558.3,558.3,0,"Y"
"01-703-1076","Clinical Site 703","703","M","WHITE",69,"Xanomeline High Dose","Week 2",2,"QTCF","QTcF","msec",590.7,558.3,32.4,""
"01-703-1076","Clinical Site 703","703","M","WHITE",69,"Xanomeline High Dose","Week 4",4,"QTCF","QTcF","msec",523.5,558.3,-34.8,""
"01-703-1076","Clinical Site 703","703","M","WHITE",69,"Xanomeline High Dose","Week 6",6,"QTCF","QTcF","msec",563,558.3,4.7,""
"01-703-1076","Clinical Site 703","703","M","WHITE",69,"Xanomeline High Dose","Week 8",8,"QTCF","QTcF","msec",604.8,558.3,46.5,""
"01-703-1076","Clinical Site 703","703","M","WHITE",69,"Xanomeline High Dose","Week 12",12,"QTCF","QTcF","msec",527.6,558.3,-30.7,""
"01-703-1086","Clinical Site 703","703","M","WHITE",71,"Xanomeline Low Dose","Baseline",0,"QTCF","QTcF","msec",528.3,528.3,0,"Y"
"01-703-1086","Clinical Site 703","703","M","WHITE",71,"Xanomeline Low Dose","Week 2",2,"QTCF","QTcF","msec",433.6,528.3,-94.7,""
"01-703-1086","Clinical Site 703","703","M","WHITE",71,"Xanomeline Low Dose","Week 4",4,"QTCF","QTcF","msec",497.3,528.3,-31,""
"01-703-1086","Clinical Site 703","703","M","WHITE",71,"Xanomeline Low Dose","Week 6",6,"QTCF","QTcF","msec",436.7,528.3,-91.6,""
"01-703-1086","Clinical Site 703","703","M","WHITE",71,"Xanomeline Low Dose","Week 8",8,"QTCF","QTcF","msec",523.9,528.3,-4.4,""
"01-703-1086","Clinical Site 703","703","M","WHITE",71,"Xanomeline Low Dose","Week 12",12,"QTCF","QTcF","msec",484.6,528.3,-43.7,""
"01-703-1086","Clinical Site 703","703","M","WHITE",71,"Xanomeline Low Dose","Week 16",16,"QTCF","QTcF","msec",420,528.3,-108.3,""
"01-703-1096","Clinical Site 703","703","F","WHITE",81,"Placebo","Baseline",0,"QTCF","QTcF","msec",450.4,450.4,0,"Y"
"01-703-1096","Clinical Site 703","703","F","WHITE",81,"Placebo","Week 2",2,"QTCF","QTcF","msec",458.3,450.4,7.9,""
"01-703-1096","Clinical Site 703","703","F","WHITE",81,"Placebo","Week 4",4,"QTCF","QTcF","msec",523.9,450.4,73.5,""
"01-703-1100","Clinical Site 703","703","F","WHITE",84,"Placebo","Baseline",0,"QTCF","QTcF","msec",510.1,510.1,0,"Y"
"01-703-1100","Clinical Site 703","703","F","WHITE",84,"Placebo","Week 2",2,"QTCF","QTcF","msec",555.8,510.1,45.7,""
"01-703-1100","Clinical Site 703","703","F","WHITE",84,"Placebo","Week 4",4,"QTCF","QTcF","msec",510.8,510.1,0.7,""
"01-703-1100","Clinical Site 703","703","F","WHITE",84,"Placebo","Week 6",6,"QTCF","QTcF","msec",463.3,510.1,-46.8,""
"01-703-1100","Clinical Site 703","703","F","WHITE",84,"Placebo","Week 8",8,"QTCF","QTcF","msec",523.9,510.1,13.8,""
"01-703-1100","Clinical Site 703","703","F","WHITE",84,"Placebo","Week 12",12,"QTCF","QTcF","msec",458.4,510.1,-51.7,""
"01-703-1100","Clinical Site 703","703","F","WHITE",84,"Placebo","Week 16",16,"QTCF","QTcF","msec",450.4,510.1,-59.7,""
"01-703-1100","Clinical Site 703","703","F","WHITE",84,"Placebo","Week 20",20,"QTCF","QTcF","msec",435.7,510.1,-74.4,""
"01-703-1100","Clinical Site 703","703","F","WHITE",84,"Placebo","Week 24",24,"QTCF","QTcF","msec",530.5,510.1,20.4,""
"01-703-1100","Clinical Site 703","703","F","WHITE",84,"Placebo","Week 26",26,"QTCF","QTcF","msec",448.4,510.1,-61.7,""
"01-703-1119","Clinical Site 703","703","F","WHITE",81,"Xanomeline Low Dose","Baseline",0,"QTCF","QTcF","msec",416.9,416.9,0,"Y"
"01-703-1119","Clinical Site 703","703","F","WHITE",81,"Xanomeline Low Dose","Week 2",2,"QTCF","QTcF","msec",382.6,416.9,-34.3,""
"01-703-1119","Clinical Site 703","703","F","WHITE",81,"Xanomeline Low Dose","Week 4",4,"QTCF","QTcF","msec",437.9,416.9,21,""
"01-703-1119","Clinical Site 703","703","F","WHITE",81,"Xanomeline Low Dose","Week 6",6,"QTCF","QTcF","msec",400.4,416.9,-16.5,""
"01-703-1119","Clinical Site 703","703","F","WHITE",81,"Xanomeline Low Dose","Week 8",8,"QTCF","QTcF","msec",479.4,416.9,62.5,""
"01-703-1119","Clinical Site 703","703","F","WHITE",81,"Xanomeline Low Dose","Week 12",12,"QTCF","QTcF","msec",475.5,416.9,58.6,""
"01-703-1119","Clinical Site 703","703","F","WHITE",81,"Xanomeline Low Dose","Week 16",16,"QTCF","QTcF","msec",541.5,416.9,124.6,""
"01-703-1175","Clinical Site 703","703","M","WHITE",75,"Placebo","Baseline",0,"QTCF","QTcF","msec",569.8,569.8,0,"Y"
"01-703-1175","Clinical Site 703","703","M","WHITE",75,"Placebo","Week 2",2,"QTCF","QTcF","msec",369.8,569.8,-200,""
"01-703-1182","Clinical Site 703","703","M","WHITE",84,"Xanomeline Low Dose","Baseline",0,"QTCF","QTcF","msec",510.1,510.1,0,"Y"
"01-703-1182","Clinical Site 703","703","M","WHITE",84,"Xanomeline Low Dose","Week 2",2,"QTCF","QTcF","msec",469.8,510.1,-40.3,""
"01-703-1182","Clinical Site 703","703","M","WHITE",84,"Xanomeline Low Dose","Week 4",4,"QTCF","QTcF","msec",539.1,510.1,29,""
"01-703-1182","Clinical Site 703","703","M","WHITE",84,"Xanomeline Low Dose","Week 6",6,"QTCF","QTcF","msec",550.4,510.1,40.3,""
"01-703-1182","Clinical Site 703","703","M","WHITE",84,"Xanomeline Low Dose","Week 8",8,"QTCF","QTcF","msec",563.8,510.1,53.7,""
"01-703-1197","Clinical Site 703","703","F","BLACK OR AFRICAN AMERICAN",76,"Xanomeline Low Dose","Baseline",0,"QTCF","QTcF","msec",480,480,0,"Y"
"01-703-1197","Clinical Site 703","703","F","BLACK OR AFRICAN AMERICAN",76,"Xanomeline Low Dose","Week 2",2,"QTCF","QTcF","msec",478.2,480,-1.8,""
"01-703-1210","Clinical Site 703","703","F","WHITE",72,"Placebo","Baseline",0,"QTCF","QTcF","msec",462.3,462.3,0,"Y"
"01-703-1210","Clinical Site 703","703","F","WHITE",72,"Placebo","Week 2",2,"QTCF","QTcF","msec",484.6,462.3,22.3,""
"01-703-1210","Clinical Site 703","703","F","WHITE",72,"Placebo","Week 4",4,"QTCF","QTcF","msec",462.3,462.3,0,""
"01-703-1210","Clinical Site 703","703","F","WHITE",72,"Placebo","Week 6",6,"QTCF","QTcF","msec",429.1,462.3,-33.2,""
"01-703-1210","Clinical Site 703","703","F","WHITE",72,"Placebo","Week 8",8,"QTCF","QTcF","msec",480,462.3,17.7,""
"01-703-1210","Clinical Site 703","703","F","WHITE",72,"Placebo","Week 12",12,"QTCF","QTcF","msec",425.4,462.3,-36.9,""
"01-703-1210","Clinical Site 703","703","F","WHITE",72,"Placebo","Week 16",16,"QTCF","QTcF","msec",372,462.3,-90.3,""
"01-703-1210","Clinical Site 703","703","F","WHITE",72,"Placebo","Week 20",20,"QTCF","QTcF","msec",450.4,462.3,-11.9,""
"01-703-1210","Clinical Site 703","703","F","WHITE",72,"Placebo","Week 24",24,"QTCF","QTcF","msec",441.4,462.3,-20.9,""
"01-703-1210","Clinical Site 703","703","F","WHITE",72,"Placebo","Week 26",26,"QTCF","QTcF","msec",398.7,462.3,-63.6,""
"01-703-1258","Clinical Site 703","703","F","WHITE",78,"Xanomeline High Dose","Baseline",0,"QTCF","QTcF","msec",612.6,612.6,0,"Y"
"01-703-1258","Clinical Site 703","703","F","WHITE",78,"Xanomeline High Dose","Week 2",2,"QTCF","QTcF","msec",537,612.6,-75.6,""
"01-703-1258","Clinical Site 703","703","F","WHITE",78,"Xanomeline High Dose","Week 4",4,"QTCF","QTcF","msec",514.8,612.6,-97.8,""
"01-703-1258","Clinical Site 703","703","F","WHITE",78,"Xanomeline High Dose","Week 6",6,"QTCF","QTcF","msec",510.1,612.6,-102.5,""
"01-703-1258","Clinical Site 703","703","F","WHITE",78,"Xanomeline High Dose","Week 8",8,"QTCF","QTcF","msec",471.8,612.6,-140.8,""
"01-703-1258","Clinical Site 703","703","F","WHITE",78,"Xanomeline High Dose","Week 12",12,"QTCF","QTcF","msec",514.8,612.6,-97.8,""
"01-703-1258","Clinical Site 703","703","F","WHITE",78,"Xanomeline High Dose","Week 16",16,"QTCF","QTcF","msec",540,612.6,-72.6,""
"01-703-1258","Clinical Site 703","703","F","WHITE",78,"Xanomeline High Dose","Week 20",20,"QTCF","QTcF","msec",595.3,612.6,-17.3,""
"01-703-1258","Clinical Site 703","703","F","WHITE",78,"Xanomeline High Dose","Week 24",24,"QTCF","QTcF","msec",528.3,612.6,-84.3,""
"01-703-1258","Clinical Site 703","703","F","WHITE",78,"Xanomeline High Dose","Week 26",26,"QTCF","QTcF","msec",594.3,612.6,-18.3,""
"01-703-1279","Clinical Site 703","703","F","WHITE",72,"Xanomeline Low Dose","Baseline",0,"QTCF","QTcF","msec",429.1,429.1,0,"Y"
"01-703-1279","Clinical Site 703","703","F","WHITE",72,"Xanomeline Low Dose","Week 2",2,"QTCF","QTcF","msec",576.3,429.1,147.2,""
"01-703-1295","Clinical Site 703","703","F","WHITE",88,"Xanomeline High Dose","Baseline",0,"QTCF","QTcF","msec",478.2,478.2,0,"Y"
"01-703-1295","Clinical Site 703","703","F","WHITE",88,"Xanomeline High Dose","Week 2",2,"QTCF","QTcF","msec",545.4,478.2,67.2,""
"01-703-1295","Clinical Site 703","703","F","WHITE",88,"Xanomeline High Dose","Week 4",4,"QTCF","QTcF","msec",559,478.2,80.8,""
"01-703-1295","Clinical Site 703","703","F","WHITE",88,"Xanomeline High Dose","Week 6",6,"QTCF","QTcF","msec",541.5,478.2,63.3,""
"01-703-1295","Clinical Site 703","703","F","WHITE",88,"Xanomeline High Dose","Week 8",8,"QTCF","QTcF","msec",528.3,478.2,50.1,""
"01-703-1295","Clinical Site 703","703","F","WHITE",88,"Xanomeline High Dose","Week 12",12,"QTCF","QTcF","msec",528.3,478.2,50.1,""
"01-703-1295","Clinical Site 703","703","F","WHITE",88,"Xanomeline High Dose","Week 16",16,"QTCF","QTcF","msec",537,478.2,58.8,""
"01-703-1295","Clinical Site 703","703","F","WHITE",88,"Xanomeline High Dose","Week 20",20,"QTCF","QTcF","msec",506.4,478.2,28.2,""
"01-703-1299","Clinical Site 703","703","F","WHITE",81,"Placebo","Baseline",0,"QTCF","QTcF","msec",429.1,429.1,0,"Y"
"01-703-1299","Clinical Site 703","703","F","WHITE",81,"Placebo","Week 2",2,"QTCF","QTcF","msec",483.7,429.1,54.6,""
"01-703-1299","Clinical Site 703","703","F","WHITE",81,"Placebo","Week 4",4,"QTCF","QTcF","msec",450.4,429.1,21.3,""
"01-703-1299","Clinical Site 703","703","F","WHITE",81,"Placebo","Week 6",6,"QTCF","QTcF","msec",469.8,429.1,40.7,""
"01-703-1299","Clinical Site 703","703","F","WHITE",81,"Placebo","Week 8",8,"QTCF","QTcF","msec",459.1,429.1,30,""
"01-703-1299","Clinical Site 703","703","F","WHITE",81,"Placebo","Week 12",12,"QTCF","QTcF","msec",409,429.1,-20.1,""
"01-703-1299","Clinical Site 703","703","F","WHITE",81,"Placebo","Week 16",16,"QTCF","QTcF","msec",460,429.1,30.9,""
"01-703-1299","Clinical Site 703","703","F","WHITE",81,"Placebo","Week 20",20,"QTCF","QTcF","msec",402.7,429.1,-26.4,""
"01-703-1299","Clinical Site 703","703","F","WHITE",81,"Placebo","Week 24",24,"QTCF","QTcF","msec",456.4,429.1,27.3,""
"01-703-1299","Clinical Site 703","703","F","WHITE",81,"Placebo","Week 26",26,"QTCF","QTcF","msec",418,429.1,-11.1,""
"01-703-1335","Clinical Site 703","703","F","BLACK OR AFRICAN AMERICAN",67,"Xanomeline High Dose","Baseline",0,"QTCF","QTcF","msec",500.4,500.4,0,"Y"
"01-703-1335","Clinical Site 703","703","F","BLACK OR AFRICAN AMERICAN",67,"Xanomeline High Dose","Week 2",2,"QTCF","QTcF","msec",561.1,500.4,60.7,""
"01-703-1335","Clinical Site 703","703","F","BLACK OR AFRICAN AMERICAN",67,"Xanomeline High Dose","Week 4",4,"QTCF","QTcF","msec",528.3,500.4,27.9,""
"01-703-1335","Clinical Site 703","703","F","BLACK OR AFRICAN AMERICAN",67,"Xanomeline High Dose","Week 6",6,"QTCF","QTcF","msec",429.1,500.4,-71.3,""
"01-703-1379","Clinical Site 703","703","F","BLACK OR AFRICAN AMERICAN",81,"Xanomeline Low Dose","Baseline",0,"QTCF","QTcF","msec",490.4,490.4,0,"Y"
"01-703-1379","Clinical Site 703","703","F","BLACK OR AFRICAN AMERICAN",81,"Xanomeline Low Dose","Week 2",2,"QTCF","QTcF","msec",446.3,490.4,-44.1,""
"01-703-1379","Clinical Site 703","703","F","BLACK OR AFRICAN AMERICAN",81,"Xanomeline Low Dose","Week 4",4,"QTCF","QTcF","msec",453.7,490.4,-36.7,""
"01-703-1379","Clinical Site 703","703","F","BLACK OR AFRICAN AMERICAN",81,"Xanomeline Low Dose","Week 6",6,"QTCF","QTcF","msec",500.4,490.4,10,""
"01-703-1379","Clinical Site 703","703","F","BLACK OR AFRICAN AMERICAN",81,"Xanomeline Low Dose","Week 8",8,"QTCF","QTcF","msec",500.4,490.4,10,""
"01-703-1379","Clinical Site 703","703","F","BLACK OR AFRICAN AMERICAN",81,"Xanomeline Low Dose","Week 12",12,"QTCF","QTcF","msec",490.4,490.4,0,""
"01-703-1379","Clinical Site 703","703","F","BLACK OR AFRICAN AMERICAN",81,"Xanomeline Low Dose","Week 16",16,"QTCF","QTcF","msec",420,490.4,-70.4,""
"01-703-1379","Clinical Site 703","703","F","BLACK OR AFRICAN AMERICAN",81,"Xanomeline Low Dose","Week 20",20,"QTCF","QTcF","msec",451.7,490.4,-38.7,""
"01-703-1379","Clinical Site 703","703","F","BLACK OR AFRICAN AMERICAN",81,"Xanomeline Low Dose","Week 24",24,"QTCF","QTcF","msec",469.1,490.4,-21.3,""
"01-703-1379","Clinical Site 703","703","F","BLACK OR AFRICAN AMERICAN",81,"Xanomeline Low Dose","Week 26",26,"QTCF","QTcF","msec",441.4,490.4,-49,""
"01-703-1403","Clinical Site 703","703","M","WHITE",67,"Xanomeline Low Dose","Baseline",0,"QTCF","QTcF","msec",510.8,510.8,0,"Y"
"01-703-1403","Clinical Site 703","703","M","WHITE",67,"Xanomeline Low Dose","Week 2",2,"QTCF","QTcF","msec",506.4,510.8,-4.4,""
"01-703-1439","Clinical Site 703","703","F","WHITE",76,"Xanomeline High Dose","Baseline",0,"QTCF","QTcF","msec",537,537,0,"Y"
"01-703-1439","Clinical Site 703","703","F","WHITE",76,"Xanomeline High Dose","Week 2",2,"QTCF","QTcF","msec",622.4,537,85.4,""
"01-703-1439","Clinical Site 703","703","F","WHITE",76,"Xanomeline High Dose","Week 4",4,"QTCF","QTcF","msec",613.5,537,76.5,""
"01-703-1439","Clinical Site 703","703","F","WHITE",76,"Xanomeline High Dose","Week 6",6,"QTCF","QTcF","msec",559.3,537,22.3,""
"01-703-1439","Clinical Site 703","703","F","WHITE",76,"Xanomeline High Dose","Week 8",8,"QTCF","QTcF","msec",528.3,537,-8.7,""
"01-703-1439","Clinical Site 703","703","F","WHITE",76,"Xanomeline High Dose","Week 12",12,"QTCF","QTcF","msec",541.5,537,4.5,""
"01-703-1439","Clinical Site 703","703","F","WHITE",76,"Xanomeline High Dose","Week 16",16,"QTCF","QTcF","msec",593,537,56,""
"01-703-1439","Clinical Site 703","703","F","WHITE",76,"Xanomeline High Dose","Week 20",20,"QTCF","QTcF","msec",606.5,537,69.5,""
"01-703-1439","Clinical Site 703","703","F","WHITE",76,"Xanomeline High Dose","Week 24",24,"QTCF","QTcF","msec",519.4,537,-17.6,""
"01-703-1439","Clinical Site 703","703","F","WHITE",76,"Xanomeline High Dose","Week 26",26,"QTCF","QTcF","msec",566,537,29,""
"01-704-1008","Clinical Site 704","704","F","WHITE",76,"Xanomeline High Dose","Baseline",0,"QTCF","QTcF","msec",474.6,474.6,0,"Y"
"01-704-1008","Clinical Site 704","704","F","WHITE",76,"Xanomeline High Dose","Week 2",2,"QTCF","QTcF","msec",490.4,474.6,15.8,""
"01-704-1008","Clinical Site 704","704","F","WHITE",76,"Xanomeline High Dose","Week 4",4,"QTCF","QTcF","msec",450.4,474.6,-24.2,""
"01-704-1008","Clinical Site 704","704","F","WHITE",76,"Xanomeline High Dose","Week 6",6,"QTCF","QTcF","msec",422.2,474.6,-52.4,""
"01-704-1009","Clinical Site 704","704","M","WHITE",83,"Xanomeline Low Dose","Baseline",0,"QTCF","QTcF","msec",484.6,484.6,0,"Y"
"01-704-1009","Clinical Site 704","704","M","WHITE",83,"Xanomeline Low Dose","Week 2",2,"QTCF","QTcF","msec",412.9,484.6,-71.7,""
"01-704-1010","Clinical Site 704","704","M","WHITE",80,"Placebo","Baseline",0,"QTCF","QTcF","msec",592,592,0,"Y"
"01-704-1010","Clinical Site 704","704","M","WHITE",80,"Placebo","Week 2",2,"QTCF","QTcF","msec",502.7,592,-89.3,""
"01-704-1010","Clinical Site 704","704","M","WHITE",80,"Placebo","Week 4",4,"QTCF","QTcF","msec",525.5,592,-66.5,""
"01-704-1010","Clinical Site 704","704","M","WHITE",80,"Placebo","Week 6",6,"QTCF","QTcF","msec",563,592,-29,""
"01-704-1010","Clinical Site 704","704","M","WHITE",80,"Placebo","Week 8",8,"QTCF","QTcF","msec",586.6,592,-5.4,""
"01-704-1010","Clinical Site 704","704","M","WHITE",80,"Placebo","Week 12",12,"QTCF","QTcF","msec",500.4,592,-91.6,""
"01-704-1010","Clinical Site 704","704","M","WHITE",80,"Placebo","Week 16",16,"QTCF","QTcF","msec",538,592,-54,""
"01-704-1010","Clinical Site 704","704","M","WHITE",80,"Placebo","Week 20",20,"QTCF","QTcF","msec",454.8,592,-137.2,""
"01-704-1017","Clinical Site 704","704","M","WHITE",77,"Xanomeline High Dose","Baseline",0,"QTCF","QTcF","msec",454.4,454.4,0,"Y"
"01-704-1017","Clinical Site 704","704","M","WHITE",77,"Xanomeline High Dose","Week 2",2,"QTCF","QTcF","msec",375.3,454.4,-79.1,""
"01-704-1017","Clinical Site 704","704","M","WHITE",77,"Xanomeline High Dose","Week 4",4,"QTCF","QTcF","msec",420.8,454.4,-33.6,""
"01-704-1017","Clinical Site 704","704","M","WHITE",77,"Xanomeline High Dose","Week 6",6,"QTCF","QTcF","msec",367.8,454.4,-86.6,""
"01-704-1025","Clinical Site 704","704","F","WHITE",81,"Xanomeline Low Dose","Baseline",0,"QTCF","QTcF","msec",513,513,0,"Y"
"01-704-1025","Clinical Site 704","704","F","WHITE",81,"Xanomeline Low Dose","Week 2",2,"QTCF","QTcF","msec",535.7,513,22.7,""
"01-704-1025","Clinical Site 704","704","F","WHITE",81,"Xanomeline Low Dose","Week 4",4,"QTCF","QTcF","msec",541.2,513,28.2,""
"01-704-1065","Clinical Site 704","704","M","WHITE",75,"Xanomeline High Dose","Baseline",0,"QTCF","QTcF","msec",527.2,527.2,0,"Y"
"01-704-1065","Clinical Site 704","704","M","WHITE",75,"Xanomeline High Dose","Week 2",2,"QTCF","QTcF","msec",510.2,527.2,-17,""
"01-704-1065","Clinical Site 704","704","M","WHITE",75,"Xanomeline High Dose","Week 4",4,"QTCF","QTcF","msec",520.3,527.2,-6.9,""
"01-704-1065","Clinical Site 704","704","M","WHITE",75,"Xanomeline High Dose","Week 6",6,"QTCF","QTcF","msec",490.4,527.2,-36.8,""
"01-704-1065","Clinical Site 704","704","M","WHITE",75,"Xanomeline High Dose","Week 8",8,"QTCF","QTcF","msec",538,527.2,10.8,""
"01-704-1065","Clinical Site 704","704","M","WHITE",75,"Xanomeline High Dose","Week 12",12,"QTCF","QTcF","msec",550.5,527.2,23.3,""
"01-704-1074","Clinical Site 704","704","F","WHITE",80,"Xanomeline High Dose","Baseline",0,"QTCF","QTcF","msec",500.4,500.4,0,"Y"
"01-704-1074","Clinical Site 704","704","F","WHITE",80,"Xanomeline High Dose","Week 2",2,"QTCF","QTcF","msec",540,500.4,39.6,""
"01-704-1074","Clinical Site 704","704","F","WHITE",80,"Xanomeline High Dose","Week 4",4,"QTCF","QTcF","msec",550.5,500.4,50.1,""
"01-704-1074","Clinical Site 704","704","F","WHITE",80,"Xanomeline High Dose","Week 6",6,"QTCF","QTcF","msec",527.2,500.4,26.8,""
"01-704-1074","Clinical Site 704","704","F","WHITE",80,"Xanomeline High Dose","Week 8",8,"QTCF","QTcF","msec",550.5,500.4,50.1,""
"01-704-1093","Clinical Site 704","704","M","WHITE",79,"Xanomeline High Dose","Baseline",0,"QTCF","QTcF","msec",551.7,551.7,0,"Y"
"01-704-1093","Clinical Site 704","704","M","WHITE",79,"Xanomeline High Dose","Week 2",2,"QTCF","QTcF","msec",522.8,551.7,-28.9,""
"01-704-1093","Clinical Site 704","704","M","WHITE",79,"Xanomeline High Dose","Week 4",4,"QTCF","QTcF","msec",571.3,551.7,19.6,""
"01-704-1093","Clinical Site 704","704","M","WHITE",79,"Xanomeline High Dose","Week 6",6,"QTCF","QTcF","msec",554.7,551.7,3,""
"01-704-1093","Clinical Site 704","704","M","WHITE",79,"Xanomeline High Dose","Week 8",8,"QTCF","QTcF","msec",532.3,551.7,-19.4,""
"01-704-1093","Clinical Site 704","704","M","WHITE",79,"Xanomeline High Dose","Week 12",12,"QTCF","QTcF","msec",497.3,551.7,-54.4,""
"01-704-1093","Clinical Site 704","704","M","WHITE",79,"Xanomeline High Dose","Week 16",16,"QTCF","QTcF","msec",514.8,551.7,-36.9,""
"01-704-1114","Clinical Site 704","704","M","WHITE",77,"Xanomeline Low Dose","Baseline",0,"QTCF","QTcF","msec",457.4,457.4,0,"Y"
"01-704-1114","Clinical Site 704","704","M","WHITE",77,"Xanomeline Low Dose","Week 2",2,"QTCF","QTcF","msec",497.3,457.4,39.9,""
"01-704-1114","Clinical Site 704","704","M","WHITE",77,"Xanomeline Low Dose","Week 4",4,"QTCF","QTcF","msec",429.1,457.4,-28.3,""
"01-704-1114","Clinical Site 704","704","M","WHITE",77,"Xanomeline Low Dose","Week 6",6,"QTCF","QTcF","msec",384,457.4,-73.4,""
"01-704-1114","Clinical Site 704","704","M","WHITE",77,"Xanomeline Low Dose","Week 8",8,"QTCF","QTcF","msec",400.4,457.4,-57,""
"01-704-1114","Clinical Site 704","704","M","WHITE",77,"Xanomeline Low Dose","Week 12",12,"QTCF","QTcF","msec",527.2,457.4,69.8,""
"01-704-1114","Clinical Site 704","704","M","WHITE",77,"Xanomeline Low Dose","Week 16",16,"QTCF","QTcF","msec",513,457.4,55.6,""
"01-704-1114","Clinical Site 704","704","M","WHITE",77,"Xanomeline Low Dose","Week 20",20,"QTCF","QTcF","msec",515,457.4,57.6,""
"01-704-1114","Clinical Site 704","704","M","WHITE",77,"Xanomeline Low Dose","Week 24",24,"QTCF","QTcF","msec",462.9,457.4,5.5,""
"01-704-1120","Clinical Site 704","704","F","WHITE",71,"Xanomeline Low Dose","Baseline",0,"QTCF","QTcF","msec",456,456,0,"Y"
"01-704-1120","Clinical Site 704","704","F","WHITE",71,"Xanomeline Low Dose","Week 2",2,"QTCF","QTcF","msec",515,456,59,""
"01-704-1120","Clinical Site 704","704","F","WHITE",71,"Xanomeline Low Dose","Week 4",4,"QTCF","QTcF","msec",548.9,456,92.9,""
"01-704-1120","Clinical Site 704","704","F","WHITE",71,"Xanomeline Low Dose","Week 6",6,"QTCF","QTcF","msec",487.9,456,31.9,""
"01-704-1120","Clinical Site 704","704","F","WHITE",71,"Xanomeline Low Dose","Week 8",8,"QTCF","QTcF","msec",470.7,456,14.7,""
"01-704-1120","Clinical Site 704","704","F","WHITE",71,"Xanomeline Low Dose","Week 12",12,"QTCF","QTcF","msec",432,456,-24,""
"01-704-1127","Clinical Site 704","704","F","WHITE",84,"Placebo","Baseline",0,"QTCF","QTcF","msec",360,360,0,"Y"
"01-704-1127","Clinical Site 704","704","F","WHITE",84,"Placebo","Week 2",2,"QTCF","QTcF","msec",432,360,72,""
"01-704-1127","Clinical Site 704","704","F","WHITE",84,"Placebo","Week 4",4,"QTCF","QTcF","msec",380.1,360,20.1,""
"01-704-1127","Clinical Site 704","704","F","WHITE",84,"Placebo","Week 6",6,"QTCF","QTcF","msec",441.4,360,81.4,""
"01-704-1127","Clinical Site 704","704","F","WHITE",84,"Placebo","Week 8",8,"QTCF","QTcF","msec",375.3,360,15.3,""
"01-704-1127","Clinical Site 704","704","F","WHITE",84,"Placebo","Week 12",12,"QTCF","QTcF","msec",412.9,360,52.9,""
"01-704-1127","Clinical Site 704","704","F","WHITE",84,"Placebo","Week 16",16,"QTCF","QTcF","msec",396.4,360,36.4,""
"01-704-1127","Clinical Site 704","704","F","WHITE",84,"Placebo","Week 20",20,"QTCF","QTcF","msec",437.9,360,77.9,""
"01-704-1127","Clinical Site 704","704","F","WHITE",84,"Placebo","Week 24",24,"QTCF","QTcF","msec",416.9,360,56.9,""
"01-704-1127","Clinical Site 704","704","F","WHITE",84,"Placebo","Week 26",26,"QTCF","QTcF","msec",404.2,360,44.2,""
"01-704-1135","Clinical Site 704","704","F","WHITE",74,"Xanomeline Low Dose","Baseline",0,"QTCF","QTcF","msec",475.4,475.4,0,"Y"
"01-704-1135","Clinical Site 704","704","F","WHITE",74,"Xanomeline Low Dose","Week 2",2,"QTCF","QTcF","msec",484.6,475.4,9.2,""
"01-704-1135","Clinical Site 704","704","F","WHITE",74,"Xanomeline Low Dose","Week 4",4,"QTCF","QTcF","msec",510.1,475.4,34.7,""
"01-704-1135","Clinical Site 704","704","F","WHITE",74,"Xanomeline Low Dose","Week 6",6,"QTCF","QTcF","msec",462.9,475.4,-12.5,""
"01-704-1135","Clinical Site 704","704","F","WHITE",74,"Xanomeline Low Dose","Week 8",8,"QTCF","QTcF","msec",446.3,475.4,-29.1,""
"01-704-1135","Clinical Site 704","704","F","WHITE",74,"Xanomeline Low Dose","Week 12",12,"QTCF","QTcF","msec",424.7,475.4,-50.7,""
"01-704-1135","Clinical Site 704","704","F","WHITE",74,"Xanomeline Low Dose","Week 16",16,"QTCF","QTcF","msec",429.5,475.4,-45.9,""
"01-704-1135","Clinical Site 704","704","F","WHITE",74,"Xanomeline Low Dose","Week 20",20,"QTCF","QTcF","msec",408.1,475.4,-67.3,""
"01-704-1135","Clinical Site 704","704","F","WHITE",74,"Xanomeline Low Dose","Week 24",24,"QTCF","QTcF","msec",459.1,475.4,-16.3,""
"01-704-1135","Clinical Site 704","704","F","WHITE",74,"Xanomeline Low Dose","Week 26",26,"QTCF","QTcF","msec",429.5,475.4,-45.9,""
"01-704-1164","Clinical Site 704","704","F","WHITE",67,"Placebo","Baseline",0,"QTCF","QTcF","msec",380.1,380.1,0,"Y"
"01-704-1164","Clinical Site 704","704","F","WHITE",67,"Placebo","Week 2",2,"QTCF","QTcF","msec",425.4,380.1,45.3,""
"01-704-1164","Clinical Site 704","704","F","WHITE",67,"Placebo","Week 4",4,"QTCF","QTcF","msec",392.4,380.1,12.3,""
"01-704-1164","Clinical Site 704","704","F","WHITE",67,"Placebo","Week 6",6,"QTCF","QTcF","msec",404.6,380.1,24.5,""
"01-704-1164","Clinical Site 704","704","F","WHITE",67,"Placebo","Week 8",8,"QTCF","QTcF","msec",396,380.1,15.9,""
"01-704-1164","Clinical Site 704","704","F","WHITE",67,"Placebo","Week 12",12,"QTCF","QTcF","msec",392.4,380.1,12.3,""
"01-704-1164","Clinical Site 704","704","F","WHITE",67,"Placebo","Week 16",16,"QTCF","QTcF","msec",376.1,380.1,-4,""
"01-704-1164","Clinical Site 704","704","F","WHITE",67,"Placebo","Week 20",20,"QTCF","QTcF","msec",433.6,380.1,53.5,""
"01-704-1164","Clinical Site 704","704","F","WHITE",67,"Placebo","Week 24",24,"QTCF","QTcF","msec",442.1,380.1,62,""
"01-704-1164","Clinical Site 704","704","F","WHITE",67,"Placebo","Week 26",26,"QTCF","QTcF","msec",402.7,380.1,22.6,""
"01-704-1218","Clinical Site 704","704","F","WHITE",81,"Xanomeline Low Dose","Baseline",0,"QTCF","QTcF","msec",502.7,502.7,0,"Y"
"01-704-1218","Clinical Site 704","704","F","WHITE",81,"Xanomeline Low Dose","Week 2",2,"QTCF","QTcF","msec",563.2,502.7,60.5,""
"01-704-1218","Clinical Site 704","704","F","WHITE",81,"Xanomeline Low Dose","Week 4",4,"QTCF","QTcF","msec",581.1,502.7,78.4,""
"01-704-1218","Clinical Site 704","704","F","WHITE",81,"Xanomeline Low Dose","Week 6",6,"QTCF","QTcF","msec",514.8,502.7,12.1,""
"01-704-1218","Clinical Site 704","704","F","WHITE",81,"Xanomeline Low Dose","Week 8",8,"QTCF","QTcF","msec",522.8,502.7,20.1,""
"01-704-1218","Clinical Site 704","704","F","WHITE",81,"Xanomeline Low Dose","Week 12",12,"QTCF","QTcF","msec",550.4,502.7,47.7,""
"01-704-1218","Clinical Site 704","704","F","WHITE",81,"Xanomeline Low Dose","Week 16",16,"QTCF","QTcF","msec",525.2,502.7,22.5,""
"01-704-1218","Clinical Site 704","704","F","WHITE",81,"Xanomeline Low Dose","Week 20",20,"QTCF","QTcF","msec",490.3,502.7,-12.4,""
"01-704-1218","Clinical Site 704","704","F","WHITE",81,"Xanomeline Low Dose","Week 24",24,"QTCF","QTcF","msec",490.4,502.7,-12.3,""
"01-704-1218","Clinical Site 704","704","F","WHITE",81,"Xanomeline Low Dose","Week 26",26,"QTCF","QTcF","msec",563,502.7,60.3,""
"01-704-1233","Clinical Site 704","704","F","WHITE",87,"Placebo","Baseline",0,"QTCF","QTcF","msec",517.9,517.9,0,"Y"
"01-704-1233","Clinical Site 704","704","F","WHITE",87,"Placebo","Week 2",2,"QTCF","QTcF","msec",507.9,517.9,-10,""
"01-704-1233","Clinical Site 704","704","F","WHITE",87,"Placebo","Week 4",4,"QTCF","QTcF","msec",513,517.9,-4.9,""
"01-704-1233","Clinical Site 704","704","F","WHITE",87,"Placebo","Week 6",6,"QTCF","QTcF","msec",487.9,517.9,-30,""
"01-704-1241","Clinical Site 704","704","M","WHITE",86,"Xanomeline High Dose","Baseline",0,"QTCF","QTcF","msec",452.8,452.8,0,"Y"
"01-704-1241","Clinical Site 704","704","M","WHITE",86,"Xanomeline High Dose","Week 2",2,"QTCF","QTcF","msec",475.5,452.8,22.7,""
"01-704-1241","Clinical Site 704","704","M","WHITE",86,"Xanomeline High Dose","Week 4",4,"QTCF","QTcF","msec",532.3,452.8,79.5,""
"01-704-1241","Clinical Site 704","704","M","WHITE",86,"Xanomeline High Dose","Week 6",6,"QTCF","QTcF","msec",545.4,452.8,92.6,""
"01-704-1241","Clinical Site 704","704","M","WHITE",86,"Xanomeline High Dose","Week 8",8,"QTCF","QTcF","msec",484.6,452.8,31.8,""
"01-704-1260","Clinical Site 704","704","F","WHITE",71,"Placebo","Baseline",0,"QTCF","QTcF","msec",480,480,0,"Y"
"01-704-1260","Clinical Site 704","704","F","WHITE",71,"Placebo","Week 2",2,"QTCF","QTcF","msec",437.9,480,-42.1,""
"01-704-1260","Clinical Site 704","704","F","WHITE",71,"Placebo","Week 4",4,"QTCF","QTcF","msec",462.9,480,-17.1,""
"01-704-1260","Clinical Site 704","704","F","WHITE",71,"Placebo","Week 6",6,"QTCF","QTcF","msec",492,480,12,""
"01-704-1260","Clinical Site 704","704","F","WHITE",71,"Placebo","Week 8",8,"QTCF","QTcF","msec",527.2,480,47.2,""
"01-704-1266","Clinical Site 704","704","M","WHITE",82,"Xanomeline High Dose","Baseline",0,"QTCF","QTcF","msec",427.1,427.1,0,"Y"
"01-704-1266","Clinical Site 704","704","M","WHITE",82,"Xanomeline High Dose","Week 2",2,"QTCF","QTcF","msec",493.4,427.1,66.3,""
"01-704-1266","Clinical Site 704","704","M","WHITE",82,"Xanomeline High Dose","Week 4",4,"QTCF","QTcF","msec",463.3,427.1,36.2,""
"01-704-1266","Clinical Site 704","704","M","WHITE",82,"Xanomeline High Dose","Week 6",6,"QTCF","QTcF","msec",450.4,427.1,23.3,""
"01-704-1266","Clinical Site 704","704","M","WHITE",82,"Xanomeline High Dose","Week 8",8,"QTCF","QTcF","msec",495.5,427.1,68.4,""
"01-704-1323","Clinical Site 704","704","F","WHITE",68,"Xanomeline Low Dose","Baseline",0,"QTCF","QTcF","msec",444,444,0,"Y"
"01-704-1323","Clinical Site 704","704","F","WHITE",68,"Xanomeline Low Dose","Week 2",2,"QTCF","QTcF","msec",424.6,444,-19.4,""
"01-704-1323","Clinical Site 704","704","F","WHITE",68,"Xanomeline Low Dose","Week 4",4,"QTCF","QTcF","msec",429.1,444,-14.9,""
"01-704-1325","Clinical Site 704","704","M","WHITE",81,"Xanomeline Low Dose","Baseline",0,"QTCF","QTcF","msec",360,360,0,"Y"
"01-704-1325","Clinical Site 704","704","M","WHITE",81,"Xanomeline Low Dose","Week 2",2,"QTCF","QTcF","msec",360,360,0,""
"01-704-1325","Clinical Site 704","704","M","WHITE",81,"Xanomeline Low Dose","Week 4",4,"QTCF","QTcF","msec",380.1,360,20.1,""
"01-704-1325","Clinical Site 704","704","M","WHITE",81,"Xanomeline Low Dose","Week 6",6,"QTCF","QTcF","msec",416.9,360,56.9,""
"01-704-1325","Clinical Site 704","704","M","WHITE",81,"Xanomeline Low Dose","Week 8",8,"QTCF","QTcF","msec",420,360,60,""
"01-704-1332","Clinical Site 704","704","M","WHITE",80,"Xanomeline High Dose","Baseline",0,"QTCF","QTcF","msec",517.9,517.9,0,"Y"
"01-704-1332","Clinical Site 704","704","M","WHITE",80,"Xanomeline High Dose","Week 2",2,"QTCF","QTcF","msec",470.7,517.9,-47.2,""
"01-704-1332","Clinical Site 704","704","M","WHITE",80,"Xanomeline High Dose","Week 4",4,"QTCF","QTcF","msec",437.7,517.9,-80.2,""
"01-704-1332","Clinical Site 704","704","M","WHITE",80,"Xanomeline High Dose","Week 6",6,"QTCF","QTcF","msec",504.1,517.9,-13.8,""
"01-704-1332","Clinical Site 704","704","M","WHITE",80,"Xanomeline High Dose","Week 8",8,"QTCF","QTcF","msec",475.4,517.9,-42.5,""
"01-704-1332","Clinical Site 704","704","M","WHITE",80,"Xanomeline High Dose","Week 12",12,"QTCF","QTcF","msec",475.4,517.9,-42.5,""
"01-704-1351","Clinical Site 704","704","M","WHITE",70,"Placebo","Baseline",0,"QTCF","QTcF","msec",492.7,492.7,0,"Y"
"01-704-1351","Clinical Site 704","704","M","WHITE",70,"Placebo","Week 2",2,"QTCF","QTcF","msec",475.4,492.7,-17.3,""
"01-704-1351","Clinical Site 704","704","M","WHITE",70,"Placebo","Week 4",4,"QTCF","QTcF","msec",403.4,492.7,-89.3,""
"01-704-1351","Clinical Site 704","704","M","WHITE",70,"Placebo","Week 6",6,"QTCF","QTcF","msec",422.2,492.7,-70.5,""
"01-704-1351","Clinical Site 704","704","M","WHITE",70,"Placebo","Week 8",8,"QTCF","QTcF","msec",465.9,492.7,-26.8,""
"01-704-1351","Clinical Site 704","704","M","WHITE",70,"Placebo","Week 12",12,"QTCF","QTcF","msec",476.1,492.7,-16.6,""
"01-704-1351","Clinical Site 704","704","M","WHITE",70,"Placebo","Week 16",16,"QTCF","QTcF","msec",446.3,492.7,-46.4,""
"01-704-1351","Clinical Site 704","704","M","WHITE",70,"Placebo","Week 20",20,"QTCF","QTcF","msec",446.3,492.7,-46.4,""
"01-704-1351","Clinical Site 704","704","M","WHITE",70,"Placebo","Week 24",24,"QTCF","QTcF","msec",441.4,492.7,-51.3,""
"01-704-1351","Clinical Site 704","704","M","WHITE",70,"Placebo","Week 26",26,"QTCF","QTcF","msec",476.1,492.7,-16.6,""
"01-704-1388","Clinical Site 704","704","M","WHITE",81,"Placebo","Baseline",0,"QTCF","QTcF","msec",504,504,0,"Y"
"01-704-1388","Clinical Site 704","704","M","WHITE",81,"Placebo","Week 2",2,"QTCF","QTcF","msec",465.9,504,-38.1,""
"01-704-1388","Clinical Site 704","704","M","WHITE",81,"Placebo","Week 4",4,"QTCF","QTcF","msec",495.5,504,-8.5,""
"01-704-1388","Clinical Site 704","704","M","WHITE",81,"Placebo","Week 6",6,"QTCF","QTcF","msec",478.2,504,-25.8,""
"01-704-1388","Clinical Site 704","704","M","WHITE",81,"Placebo","Week 8",8,"QTCF","QTcF","msec",500.4,504,-3.6,""
"01-704-1388","Clinical Site 704","704","M","WHITE",81,"Placebo","Week 12",12,"QTCF","QTcF","msec",453.7,504,-50.3,""
"01-704-1388","Clinical Site 704","704","M","WHITE",81,"Placebo","Week 16",16,"QTCF","QTcF","msec",420,504,-84,""
"01-704-1388","Clinical Site 704","704","M","WHITE",81,"Placebo","Week 20",20,"QTCF","QTcF","msec",458.3,504,-45.7,""
"01-704-1388","Clinical Site 704","704","M","WHITE",81,"Placebo","Week 24",24,"QTCF","QTcF","msec",429.5,504,-74.5,""
"01-704-1388","Clinical Site 704","704","M","WHITE",81,"Placebo","Week 26",26,"QTCF","QTcF","msec",424.6,504,-79.4,""
"01-704-1435","Clinical Site 704","704","M","WHITE",74,"Placebo","Baseline",0,"QTCF","QTcF","msec",535.6,535.6,0,"Y"
"01-704-1435","Clinical Site 704","704","M","WHITE",74,"Placebo","Week 2",2,"QTCF","QTcF","msec",425.4,535.6,-110.2,""
"01-704-1435","Clinical Site 704","704","M","WHITE",74,"Placebo","Week 4",4,"QTCF","QTcF","msec",484.6,535.6,-51,""
"01-704-1435","Clinical Site 704","704","M","WHITE",74,"Placebo","Week 6",6,"QTCF","QTcF","msec",446.3,535.6,-89.3,""
"01-704-1435","Clinical Site 704","704","M","WHITE",74,"Placebo","Week 8",8,"QTCF","QTcF","msec",478.2,535.6,-57.4,""
"01-704-1445","Clinical Site 704","704","M","WHITE",75,"Placebo","Baseline",0,"QTCF","QTcF","msec",463.3,463.3,0,"Y"
"01-704-1445","Clinical Site 704","704","M","WHITE",75,"Placebo","Week 2",2,"QTCF","QTcF","msec",488.7,463.3,25.4,""
"01-704-1445","Clinical Site 704","704","M","WHITE",75,"Placebo","Week 4",4,"QTCF","QTcF","msec",467.4,463.3,4.1,""
"01-704-1445","Clinical Site 704","704","M","WHITE",75,"Placebo","Week 6",6,"QTCF","QTcF","msec",446.3,463.3,-17,""
"01-704-1445","Clinical Site 704","704","M","WHITE",75,"Placebo","Week 8",8,"QTCF","QTcF","msec",463.3,463.3,0,""
"01-704-1445","Clinical Site 704","704","M","WHITE",75,"Placebo","Week 12",12,"QTCF","QTcF","msec",429.5,463.3,-33.8,""
"01-704-1445","Clinical Site 704","704","M","WHITE",75,"Placebo","Week 16",16,"QTCF","QTcF","msec",537,463.3,73.7,""
"01-704-1445","Clinical Site 704","704","M","WHITE",75,"Placebo","Week 20",20,"QTCF","QTcF","msec",525.5,463.3,62.2,""
"01-705-1018","Clinical Site 705","705","F","WHITE",69,"Placebo","Baseline",0,"QTCF","QTcF","msec",500.4,500.4,0,"Y"
"01-705-1031","Clinical Site 705","705","F","WHITE",56,"Xanomeline Low Dose","Baseline",0,"QTCF","QTcF","msec",535.6,535.6,0,"Y"
"01-705-1031","Clinical Site 705","705","F","WHITE",56,"Xanomeline Low Dose","Week 2",2,"QTCF","QTcF","msec",505.3,535.6,-30.3,""
"01-705-1031","Clinical Site 705","705","F","WHITE",56,"Xanomeline Low Dose","Week 4",4,"QTCF","QTcF","msec",539.1,535.6,3.5,""
"01-705-1031","Clinical Site 705","705","F","WHITE",56,"Xanomeline Low Dose","Week 6",6,"QTCF","QTcF","msec",497.4,535.6,-38.2,""
"01-705-1059","Clinical Site 705","705","F","WHITE",66,"Placebo","Baseline",0,"QTCF","QTcF","msec",637.7,637.7,0,"Y"
"01-705-1059","Clinical Site 705","705","F","WHITE",66,"Placebo","Week 2",2,"QTCF","QTcF","msec",495.3,637.7,-142.4,""
"01-705-1059","Clinical Site 705","705","F","WHITE",66,"Placebo","Week 4",4,"QTCF","QTcF","msec",545.4,637.7,-92.3,""
"01-705-1059","Clinical Site 705","705","F","WHITE",66,"Placebo","Week 6",6,"QTCF","QTcF","msec",540,637.7,-97.7,""
"01-705-1059","Clinical Site 705","705","F","WHITE",66,"Placebo","Week 8",8,"QTCF","QTcF","msec",510.1,637.7,-127.6,""
"01-705-1059","Clinical Site 705","705","F","WHITE",66,"Placebo","Week 12",12,"QTCF","QTcF","msec",604.4,637.7,-33.3,""
"01-705-1059","Clinical Site 705","705","F","WHITE",66,"Placebo","Week 16",16,"QTCF","QTcF","msec",500.4,637.7,-137.3,""
"01-705-1186","Clinical Site 705","705","F","WHITE",84,"Placebo","Baseline",0,"QTCF","QTcF","msec",420,420,0,"Y"
"01-705-1186","Clinical Site 705","705","F","WHITE",84,"Placebo","Week 2",2,"QTCF","QTcF","msec",452.5,420,32.5,""
"01-705-1186","Clinical Site 705","705","F","WHITE",84,"Placebo","Week 4",4,"QTCF","QTcF","msec",459.8,420,39.8,""
"01-705-1199","Clinical Site 705","705","M","WHITE",87,"Xanomeline Low Dose","Baseline",0,"QTCF","QTcF","msec",437.9,437.9,0,"Y"
"01-705-1199","Clinical Site 705","705","M","WHITE",87,"Xanomeline Low Dose","Week 2",2,"QTCF","QTcF","msec",424.6,437.9,-13.3,""
"01-705-1280","Clinical Site 705","705","F","WHITE",56,"Xanomeline High Dose","Baseline",0,"QTCF","QTcF","msec",462.3,462.3,0,"Y"
"01-705-1280","Clinical Site 705","705","F","WHITE",56,"Xanomeline High Dose","Week 2",2,"QTCF","QTcF","msec",509.5,462.3,47.2,""
"01-705-1280","Clinical Site 705","705","F","WHITE",56,"Xanomeline High Dose","Week 4",4,"QTCF","QTcF","msec",631.6,462.3,169.3,""
"01-705-1280","Clinical Site 705","705","F","WHITE",56,"Xanomeline High Dose","Week 6",6,"QTCF","QTcF","msec",548.3,462.3,86,""
"01-705-1280","Clinical Site 705","705","F","WHITE",56,"Xanomeline High Dose","Week 8",8,"QTCF","QTcF","msec",581.1,462.3,118.8,""
"01-705-1280","Clinical Site 705","705","F","WHITE",56,"Xanomeline High Dose","Week 12",12,"QTCF","QTcF","msec",594.3,462.3,132,""
"01-705-1280","Clinical Site 705","705","F","WHITE",56,"Xanomeline High Dose","Week 16",16,"QTCF","QTcF","msec",575.5,462.3,113.2,""
"01-705-1280","Clinical Site 705","705","F","WHITE",56,"Xanomeline High Dose","Week 20",20,"QTCF","QTcF","msec",657.8,462.3,195.5,""
"01-705-1280","Clinical Site 705","705","F","WHITE",56,"Xanomeline High Dose","Week 24",24,"QTCF","QTcF","msec",540.5,462.3,78.2,""
"01-705-1280","Clinical Site 705","705","F","WHITE",56,"Xanomeline High Dose","Week 26",26,"QTCF","QTcF","msec",563,462.3,100.7,""
"01-705-1281","Clinical Site 705","705","F","BLACK OR AFRICAN AMERICAN",73,"Xanomeline High Dose","Baseline",0,"QTCF","QTcF","msec",480,480,0,"Y"
"01-705-1281","Clinical Site 705","705","F","BLACK OR AFRICAN AMERICAN",73,"Xanomeline High Dose","Week 2",2,"QTCF","QTcF","msec",551.7,480,71.7,""
"01-705-1281","Clinical Site 705","705","F","BLACK OR AFRICAN AMERICAN",73,"Xanomeline High Dose","Week 4",4,"QTCF","QTcF","msec",515.6,480,35.6,""
"01-705-1281","Clinical Site 705","705","F","BLACK OR AFRICAN AMERICAN",73,"Xanomeline High Dose","Week 6",6,"QTCF","QTcF","msec",490.4,480,10.4,""
"01-705-1281","Clinical Site 705","705","F","BLACK OR AFRICAN AMERICAN",73,"Xanomeline High Dose","Week 8",8,"QTCF","QTcF","msec",551.7,480,71.7,""
"01-705-1281","Clinical Site 705","705","F","BLACK OR AFRICAN AMERICAN",73,"Xanomeline High Dose","Week 12",12,"QTCF","QTcF","msec",528.3,480,48.3,""
"01-705-1281","Clinical Site 705","705","F","BLACK OR AFRICAN AMERICAN",73,"Xanomeline High Dose","Week 16",16,"QTCF","QTcF","msec",540,480,60,""
"01-705-1282","Clinical Site 705","705","F","BLACK OR AFRICAN AMERICAN",70,"Placebo","Baseline",0,"QTCF","QTcF","msec",458.4,458.4,0,"Y"
"01-705-1282","Clinical Site 705","705","F","BLACK OR AFRICAN AMERICAN",70,"Placebo","Week 2",2,"QTCF","QTcF","msec",509.5,458.4,51.1,""
"01-705-1282","Clinical Site 705","705","F","BLACK OR AFRICAN AMERICAN",70,"Placebo","Week 4",4,"QTCF","QTcF","msec",503.4,458.4,45,""
"01-705-1282","Clinical Site 705","705","F","BLACK OR AFRICAN AMERICAN",70,"Placebo","Week 6",6,"QTCF","QTcF","msec",507.7,458.4,49.3,""
"01-705-1282","Clinical Site 705","705","F","BLACK OR AFRICAN AMERICAN",70,"Placebo","Week 8",8,"QTCF","QTcF","msec",510.1,458.4,51.7,""
"01-705-1282","Clinical Site 705","705","F","BLACK OR AFRICAN AMERICAN",70,"Placebo","Week 12",12,"QTCF","QTcF","msec",528.3,458.4,69.9,""
"01-705-1282","Clinical Site 705","705","F","BLACK OR AFRICAN AMERICAN",70,"Placebo","Week 16",16,"QTCF","QTcF","msec",454.9,458.4,-3.5,""
"01-705-1282","Clinical Site 705","705","F","BLACK OR AFRICAN AMERICAN",70,"Placebo","Week 20",20,"QTCF","QTcF","msec",535.6,458.4,77.2,""
"01-705-1282","Clinical Site 705","705","F","BLACK OR AFRICAN AMERICAN",70,"Placebo","Week 24",24,"QTCF","QTcF","msec",537,458.4,78.6,""
"01-705-1282","Clinical Site 705","705","F","BLACK OR AFRICAN AMERICAN",70,"Placebo","Week 26",26,"QTCF","QTcF","msec",523.9,458.4,65.5,""
"01-705-1292","Clinical Site 705","705","F","BLACK OR AFRICAN AMERICAN",60,"Xanomeline Low Dose","Baseline",0,"QTCF","QTcF","msec",523.9,523.9,0,"Y"
"01-705-1292","Clinical Site 705","705","F","BLACK OR AFRICAN AMERICAN",60,"Xanomeline Low Dose","Week 2",2,"QTCF","QTcF","msec",540.6,523.9,16.7,""
"01-705-1292","Clinical Site 705","705","F","BLACK OR AFRICAN AMERICAN",60,"Xanomeline Low Dose","Week 4",4,"QTCF","QTcF","msec",502.7,523.9,-21.2,""
"01-705-1292","Clinical Site 705","705","F","BLACK OR AFRICAN AMERICAN",60,"Xanomeline Low Dose","Week 6",6,"QTCF","QTcF","msec",532.7,523.9,8.8,""
"01-705-1292","Clinical Site 705","705","F","BLACK OR AFRICAN AMERICAN",60,"Xanomeline Low Dose","Week 8",8,"QTCF","QTcF","msec",542,523.9,18.1,""
"01-705-1292","Clinical Site 705","705","F","BLACK OR AFRICAN AMERICAN",60,"Xanomeline Low Dose","Week 12",12,"QTCF","QTcF","msec",548.3,523.9,24.4,""
"01-705-1292","Clinical Site 705","705","F","BLACK OR AFRICAN AMERICAN",60,"Xanomeline Low Dose","Week 16",16,"QTCF","QTcF","msec",563,523.9,39.1,""
"01-705-1292","Clinical Site 705","705","F","BLACK OR AFRICAN AMERICAN",60,"Xanomeline Low Dose","Week 20",20,"QTCF","QTcF","msec",589.4,523.9,65.5,""
"01-705-1292","Clinical Site 705","705","F","BLACK OR AFRICAN AMERICAN",60,"Xanomeline Low Dose","Week 24",24,"QTCF","QTcF","msec",563,523.9,39.1,""
"01-705-1292","Clinical Site 705","705","F","BLACK OR AFRICAN AMERICAN",60,"Xanomeline Low Dose","Week 26",26,"QTCF","QTcF","msec",500.4,523.9,-23.5,""
"01-705-1303","Clinical Site 705","705","M","WHITE",72,"Xanomeline High Dose","Baseline",0,"QTCF","QTcF","msec",563,563,0,"Y"
"01-705-1303","Clinical Site 705","705","M","WHITE",72,"Xanomeline High Dose","Week 2",2,"QTCF","QTcF","msec",554.7,563,-8.3,""
"01-705-1303","Clinical Site 705","705","M","WHITE",72,"Xanomeline High Dose","Week 4",4,"QTCF","QTcF","msec",478.2,563,-84.8,""
"01-705-1303","Clinical Site 705","705","M","WHITE",72,"Xanomeline High Dose","Week 6",6,"QTCF","QTcF","msec",581.1,563,18.1,""
"01-705-1310","Clinical Site 705","705","F","WHITE",74,"Xanomeline High Dose","Baseline",0,"QTCF","QTcF","msec",515,515,0,"Y"
"01-705-1310","Clinical Site 705","705","F","WHITE",74,"Xanomeline High Dose","Week 2",2,"QTCF","QTcF","msec",594.3,515,79.3,""
"01-705-1310","Clinical Site 705","705","F","WHITE",74,"Xanomeline High Dose","Week 4",4,"QTCF","QTcF","msec",490.4,515,-24.6,""
"01-705-1310","Clinical Site 705","705","F","WHITE",74,"Xanomeline High Dose","Week 6",6,"QTCF","QTcF","msec",531.7,515,16.7,""
"01-705-1310","Clinical Site 705","705","F","WHITE",74,"Xanomeline High Dose","Week 8",8,"QTCF","QTcF","msec",480,515,-35,""
"01-705-1310","Clinical Site 705","705","F","WHITE",74,"Xanomeline High Dose","Week 12",12,"QTCF","QTcF","msec",382.6,515,-132.4,""
"01-705-1349","Clinical Site 705","705","F","WHITE",86,"Placebo","Baseline",0,"QTCF","QTcF","msec",500.4,500.4,0,"Y"
"01-705-1349","Clinical Site 705","705","F","WHITE",86,"Placebo","Week 2",2,"QTCF","QTcF","msec",429.1,500.4,-71.3,""
"01-705-1349","Clinical Site 705","705","F","WHITE",86,"Placebo","Week 4",4,"QTCF","QTcF","msec",528.3,500.4,27.9,""
"01-705-1349","Clinical Site 705","705","F","WHITE",86,"Placebo","Week 6",6,"QTCF","QTcF","msec",382.6,500.4,-117.8,""
"01-705-1349","Clinical Site 705","705","F","WHITE",86,"Placebo","Week 8",8,"QTCF","QTcF","msec",478.2,500.4,-22.2,""
"01-705-1349","Clinical Site 705","705","F","WHITE",86,"Placebo","Week 12",12,"QTCF","QTcF","msec",505.3,500.4,4.9,""
"01-705-1349","Clinical Site 705","705","F","WHITE",86,"Placebo","Week 16",16,"QTCF","QTcF","msec",462.3,500.4,-38.1,""
"01-705-1349","Clinical Site 705","705","F","WHITE",86,"Placebo","Week 20",20,"QTCF","QTcF","msec",462.9,500.4,-37.5,""
"01-705-1349","Clinical Site 705","705","F","WHITE",86,"Placebo","Week 24",24,"QTCF","QTcF","msec",446.3,500.4,-54.1,""
"01-705-1349","Clinical Site 705","705","F","WHITE",86,"Placebo","Week 26",26,"QTCF","QTcF","msec",446.3,500.4,-54.1,""
"01-705-1377","Clinical Site 705","705","F","BLACK OR AFRICAN AMERICAN",63,"Xanomeline High Dose","Baseline",0,"QTCF","QTcF","msec",392.4,392.4,0,"Y"
"01-705-1377","Clinical Site 705","705","F","BLACK OR AFRICAN AMERICAN",63,"Xanomeline High Dose","Week 2",2,"QTCF","QTcF","msec",458.4,392.4,66,""
"01-705-1377","Clinical Site 705","705","F","BLACK OR AFRICAN AMERICAN",63,"Xanomeline High Dose","Week 4",4,"QTCF","QTcF","msec",442.1,392.4,49.7,""
"01-705-1382","Clinical Site 705","705","M","WHITE",82,"Xanomeline Low Dose","Baseline",0,"QTCF","QTcF","msec",550.5,550.5,0,"Y"
"01-705-1393","Clinical Site 705","705","F","WHITE",84,"Xanomeline Low Dose","Baseline",0,"QTCF","QTcF","msec",563,563,0,"Y"
"01-705-1393","Clinical Site 705","705","F","WHITE",84,"Xanomeline Low Dose","Week 2",2,"QTCF","QTcF","msec",514.8,563,-48.2,""
"01-705-1393","Clinical Site 705","705","F","WHITE",84,"Xanomeline Low Dose","Week 4",4,"QTCF","QTcF","msec",523.9,563,-39.1,""
"01-705-1393","Clinical Site 705","705","F","WHITE",84,"Xanomeline Low Dose","Week 6",6,"QTCF","QTcF","msec",563,563,0,""
"01-705-1393","Clinical Site 705","705","F","WHITE",84,"Xanomeline Low Dose","Week 8",8,"QTCF","QTcF","msec",494.6,563,-68.4,""
"01-705-1393","Clinical Site 705","705","F","WHITE",84,"Xanomeline Low Dose","Week 12",12,"QTCF","QTcF","msec",671.2,563,108.2,""
"01-705-1393","Clinical Site 705","705","F","WHITE",84,"Xanomeline Low Dose","Week 16",16,"QTCF","QTcF","msec",563,563,0,""
"01-705-1393","Clinical Site 705","705","F","WHITE",84,"Xanomeline Low Dose","Week 20",20,"QTCF","QTcF","msec",640.2,563,77.2,""
"01-705-1431","Clinical Site 705","705","F","WHITE",68,"Xanomeline Low Dose","Baseline",0,"QTCF","QTcF","msec",490.4,490.4,0,"Y"
"01-705-1431","Clinical Site 705","705","F","WHITE",68,"Xanomeline Low Dose","Week 2",2,"QTCF","QTcF","msec",517.9,490.4,27.5,""
"01-705-1431","Clinical Site 705","705","F","WHITE",68,"Xanomeline Low Dose","Week 4",4,"QTCF","QTcF","msec",485.3,490.4,-5.1,""
"01-705-1431","Clinical Site 705","705","F","WHITE",68,"Xanomeline Low Dose","Week 6",6,"QTCF","QTcF","msec",527.6,490.4,37.2,""
"01-705-1431","Clinical Site 705","705","F","WHITE",68,"Xanomeline Low Dose","Week 8",8,"QTCF","QTcF","msec",330,490.4,-160.4,""
"01-705-1431","Clinical Site 705","705","F","WHITE",68,"Xanomeline Low Dose","Week 12",12,"QTCF","QTcF","msec",360,490.4,-130.4,""
"01-705-1431","Clinical Site 705","705","F","WHITE",68,"Xanomeline Low Dose","Week 16",16,"QTCF","QTcF","msec",429.1,490.4,-61.3,""
"01-705-1431","Clinical Site 705","705","F","WHITE",68,"Xanomeline Low Dose","Week 20",20,"QTCF","QTcF","msec",437.9,490.4,-52.5,""
"01-705-1431","Clinical Site 705","705","F","WHITE",68,"Xanomeline Low Dose","Week 24",24,"QTCF","QTcF","msec",367.8,490.4,-122.6,""
"01-705-1431","Clinical Site 705","705","F","WHITE",68,"Xanomeline Low Dose","Week 26",26,"QTCF","QTcF","msec",394.3,490.4,-96.1,""
"01-706-1041","Clinical Site 706","706","F","BLACK OR AFRICAN AMERICAN",64,"Placebo","Baseline",0,"QTCF","QTcF","msec",528.3,528.3,0,"Y"
"01-706-1041","Clinical Site 706","706","F","BLACK OR AFRICAN AMERICAN",64,"Placebo","Week 2",2,"QTCF","QTcF","msec",505.3,528.3,-23,""
"01-706-1041","Clinical Site 706","706","F","BLACK OR AFRICAN AMERICAN",64,"Placebo","Week 4",4,"QTCF","QTcF","msec",589.4,528.3,61.1,""
"01-706-1041","Clinical Site 706","706","F","BLACK OR AFRICAN AMERICAN",64,"Placebo","Week 6",6,"QTCF","QTcF","msec",523.9,528.3,-4.4,""
"01-706-1041","Clinical Site 706","706","F","BLACK OR AFRICAN AMERICAN",64,"Placebo","Week 8",8,"QTCF","QTcF","msec",490.4,528.3,-37.9,""
"01-706-1041","Clinical Site 706","706","F","BLACK OR AFRICAN AMERICAN",64,"Placebo","Week 12",12,"QTCF","QTcF","msec",540.5,528.3,12.2,""
"01-706-1041","Clinical Site 706","706","F","BLACK OR AFRICAN AMERICAN",64,"Placebo","Week 16",16,"QTCF","QTcF","msec",480,528.3,-48.3,""
"01-706-1041","Clinical Site 706","706","F","BLACK OR AFRICAN AMERICAN",64,"Placebo","Week 20",20,"QTCF","QTcF","msec",538,528.3,9.7,""
"01-706-1041","Clinical Site 706","706","F","BLACK OR AFRICAN AMERICAN",64,"Placebo","Week 24",24,"QTCF","QTcF","msec",469.6,528.3,-58.7,""
"01-706-1041","Clinical Site 706","706","F","BLACK OR AFRICAN AMERICAN",64,"Placebo","Week 26",26,"QTCF","QTcF","msec",584,528.3,55.7,""
"01-706-1049","Clinical Site 706","706","F","WHITE",60,"Xanomeline High Dose","Baseline",0,"QTCF","QTcF","msec",537,537,0,"Y"
"01-706-1049","Clinical Site 706","706","F","WHITE",60,"Xanomeline High Dose","Week 2",2,"QTCF","QTcF","msec",462.3,537,-74.7,""
"01-706-1049","Clinical Site 706","706","F","WHITE",60,"Xanomeline High Dose","Week 4",4,"QTCF","QTcF","msec",531.7,537,-5.3,""
"01-706-1049","Clinical Site 706","706","F","WHITE",60,"Xanomeline High Dose","Week 6",6,"QTCF","QTcF","msec",537,537,0,""
"01-706-1384","Clinical Site 706","706","F","WHITE",74,"Xanomeline Low Dose","Baseline",0,"QTCF","QTcF","msec",375.3,375.3,0,"Y"
"01-706-1384","Clinical Site 706","706","F","WHITE",74,"Xanomeline Low Dose","Week 2",2,"QTCF","QTcF","msec",446.3,375.3,71,""
"01-707-1037","Clinical Site 707","707","F","WHITE",72,"Xanomeline Low Dose","Baseline",0,"QTCF","QTcF","msec",566.2,566.2,0,"Y"
"01-707-1037","Clinical Site 707","707","F","WHITE",72,"Xanomeline Low Dose","Week 2",2,"QTCF","QTcF","msec",450.4,566.2,-115.8,""
"01-707-1206","Clinical Site 707","707","M","WHITE",65,"Placebo","Baseline",0,"QTCF","QTcF","msec",504,504,0,"Y"
"01-707-1206","Clinical Site 707","707","M","WHITE",65,"Placebo","Week 2",2,"QTCF","QTcF","msec",420,504,-84,""
"01-707-1206","Clinical Site 707","707","M","WHITE",65,"Placebo","Week 4",4,"QTCF","QTcF","msec",408,504,-96,""
"01-707-1206","Clinical Site 707","707","M","WHITE",65,"Placebo","Week 6",6,"QTCF","QTcF","msec",504.3,504,0.3,""
"01-707-1206","Clinical Site 707","707","M","WHITE",65,"Placebo","Week 8",8,"QTCF","QTcF","msec",480.8,504,-23.2,""
"01-707-1206","Clinical Site 707","707","M","WHITE",65,"Placebo","Week 12",12,"QTCF","QTcF","msec",480,504,-24,""
"01-707-1206","Clinical Site 707","707","M","WHITE",65,"Placebo","Week 16",16,"QTCF","QTcF","msec",468,504,-36,""
"01-707-1206","Clinical Site 707","707","M","WHITE",65,"Placebo","Week 20",20,"QTCF","QTcF","msec",410.5,504,-93.5,""
"01-707-1206","Clinical Site 707","707","M","WHITE",65,"Placebo","Week 24",24,"QTCF","QTcF","msec",480.8,504,-23.2,""
"01-707-1206","Clinical Site 707","707","M","WHITE",65,"Placebo","Week 26",26,"QTCF","QTcF","msec",469.1,504,-34.9,""
"01-708-1019","Clinical Site 708","708","M","WHITE",68,"Xanomeline Low Dose","Baseline",0,"QTCF","QTcF","msec",391.6,391.6,0,"Y"
"01-708-1019","Clinical Site 708","708","M","WHITE",68,"Xanomeline Low Dose","Week 2",2,"QTCF","QTcF","msec",375.3,391.6,-16.3,""
"01-708-1032","Clinical Site 708","708","M","WHITE",62,"Xanomeline Low Dose","Baseline",0,"QTCF","QTcF","msec",537,537,0,"Y"
"01-708-1032","Clinical Site 708","708","M","WHITE",62,"Xanomeline Low Dose","Week 2",2,"QTCF","QTcF","msec",560.7,537,23.7,""
"01-708-1032","Clinical Site 708","708","M","WHITE",62,"Xanomeline Low Dose","Week 4",4,"QTCF","QTcF","msec",594.3,537,57.3,""
"01-708-1084","Clinical Site 708","708","F","WHITE",73,"Xanomeline Low Dose","Baseline",0,"QTCF","QTcF","msec",477.2,477.2,0,"Y"
"01-708-1084","Clinical Site 708","708","F","WHITE",73,"Xanomeline Low Dose","Week 2",2,"QTCF","QTcF","msec",420,477.2,-57.2,""
"01-708-1084","Clinical Site 708","708","F","WHITE",73,"Xanomeline Low Dose","Week 4",4,"QTCF","QTcF","msec",442.1,477.2,-35.1,""
"01-708-1084","Clinical Site 708","708","F","WHITE",73,"Xanomeline Low Dose","Week 6",6,"QTCF","QTcF","msec",384,477.2,-93.2,""
"01-708-1084","Clinical Site 708","708","F","WHITE",73,"Xanomeline Low Dose","Week 8",8,"QTCF","QTcF","msec",424.6,477.2,-52.6,""
"01-708-1084","Clinical Site 708","708","F","WHITE",73,"Xanomeline Low Dose","Week 12",12,"QTCF","QTcF","msec",364,477.2,-113.2,""
"01-708-1084","Clinical Site 708","708","F","WHITE",73,"Xanomeline Low Dose","Week 16",16,"QTCF","QTcF","msec",360,477.2,-117.2,""
"01-708-1084","Clinical Site 708","708","F","WHITE",73,"Xanomeline Low Dose","Week 20",20,"QTCF","QTcF","msec",456.4,477.2,-20.8,""
"01-708-1084","Clinical Site 708","708","F","WHITE",73,"Xanomeline Low Dose","Week 24",24,"QTCF","QTcF","msec",382.6,477.2,-94.6,""
"01-708-1084","Clinical Site 708","708","F","WHITE",73,"Xanomeline Low Dose","Week 26",26,"QTCF","QTcF","msec",380.1,477.2,-97.1,""
"01-708-1087","Clinical Site 708","708","F","WHITE",74,"Placebo","Baseline",0,"QTCF","QTcF","msec",461,461,0,"Y"
"01-708-1087","Clinical Site 708","708","F","WHITE",74,"Placebo","Week 2",2,"QTCF","QTcF","msec",515.1,461,54.1,""
"01-708-1087","Clinical Site 708","708","F","WHITE",74,"Placebo","Week 4",4,"QTCF","QTcF","msec",471.5,461,10.5,""
"01-708-1087","Clinical Site 708","708","F","WHITE",74,"Placebo","Week 6",6,"QTCF","QTcF","msec",501.9,461,40.9,""
"01-708-1087","Clinical Site 708","708","F","WHITE",74,"Placebo","Week 8",8,"QTCF","QTcF","msec",480,461,19,""
"01-708-1087","Clinical Site 708","708","F","WHITE",74,"Placebo","Week 12",12,"QTCF","QTcF","msec",510.1,461,49.1,""
"01-708-1087","Clinical Site 708","708","F","WHITE",74,"Placebo","Week 16",16,"QTCF","QTcF","msec",516,461,55,""
"01-708-1087","Clinical Site 708","708","F","WHITE",74,"Placebo","Week 20",20,"QTCF","QTcF","msec",490.4,461,29.4,""
"01-708-1087","Clinical Site 708","708","F","WHITE",74,"Placebo","Week 24",24,"QTCF","QTcF","msec",480,461,19,""
"01-708-1087","Clinical Site 708","708","F","WHITE",74,"Placebo","Week 26",26,"QTCF","QTcF","msec",425.4,461,-35.6,""
"01-708-1158","Clinical Site 708","708","F","WHITE",81,"Placebo","Baseline",0,"QTCF","QTcF","msec",518.1,518.1,0,"Y"
"01-708-1158","Clinical Site 708","708","F","WHITE",81,"Placebo","Week 2",2,"QTCF","QTcF","msec",523.5,518.1,5.4,""
"01-708-1158","Clinical Site 708","708","F","WHITE",81,"Placebo","Week 4",4,"QTCF","QTcF","msec",581.2,518.1,63.1,""
"01-708-1158","Clinical Site 708","708","F","WHITE",81,"Placebo","Week 6",6,"QTCF","QTcF","msec",613.5,518.1,95.4,""
"01-708-1171","Clinical Site 708","708","F","WHITE",77,"Placebo","Baseline",0,"QTCF","QTcF","msec",462.3,462.3,0,"Y"
"01-708-1171","Clinical Site 708","708","F","WHITE",77,"Placebo","Week 2",2,"QTCF","QTcF","msec",554.7,462.3,92.4,""
"01-708-1171","Clinical Site 708","708","F","WHITE",77,"Placebo","Week 4",4,"QTCF","QTcF","msec",510.1,462.3,47.8,""
"01-708-1171","Clinical Site 708","708","F","WHITE",77,"Placebo","Week 6",6,"QTCF","QTcF","msec",396.2,462.3,-66.1,""
"01-708-1171","Clinical Site 708","708","F","WHITE",77,"Placebo","Week 8",8,"QTCF","QTcF","msec",469.8,462.3,7.5,""
"01-708-1171","Clinical Site 708","708","F","WHITE",77,"Placebo","Week 12",12,"QTCF","QTcF","msec",379,462.3,-83.3,""
"01-708-1171","Clinical Site 708","708","F","WHITE",77,"Placebo","Week 16",16,"QTCF","QTcF","msec",422.6,462.3,-39.7,""
"01-708-1171","Clinical Site 708","708","F","WHITE",77,"Placebo","Week 20",20,"QTCF","QTcF","msec",392.9,462.3,-69.4,""
"01-708-1171","Clinical Site 708","708","F","WHITE",77,"Placebo","Week 24",24,"QTCF","QTcF","msec",379,462.3,-83.3,""
"01-708-1171","Clinical Site 708","708","F","WHITE",77,"Placebo","Week 26",26,"QTCF","QTcF","msec",471.8,462.3,9.5,""
"01-708-1178","Clinical Site 708","708","F","BLACK OR AFRICAN AMERICAN",77,"Xanomeline High Dose","Baseline",0,"QTCF","QTcF","msec",497.3,497.3,0,"Y"
"01-708-1178","Clinical Site 708","708","F","BLACK OR AFRICAN AMERICAN",77,"Xanomeline High Dose","Week 2",2,"QTCF","QTcF","msec",467.4,497.3,-29.9,""
"01-708-1178","Clinical Site 708","708","F","BLACK OR AFRICAN AMERICAN",77,"Xanomeline High Dose","Week 4",4,"QTCF","QTcF","msec",497.4,497.3,0.1,""
"01-708-1178","Clinical Site 708","708","F","BLACK OR AFRICAN AMERICAN",77,"Xanomeline High Dose","Week 6",6,"QTCF","QTcF","msec",495.5,497.3,-1.8,""
"01-708-1178","Clinical Site 708","708","F","BLACK OR AFRICAN AMERICAN",77,"Xanomeline High Dose","Week 8",8,"QTCF","QTcF","msec",497.3,497.3,0,""
"01-708-1178","Clinical Site 708","708","F","BLACK OR AFRICAN AMERICAN",77,"Xanomeline High Dose","Week 12",12,"QTCF","QTcF","msec",514.8,497.3,17.5,""
"01-708-1213","Clinical Site 708","708","F","WHITE",76,"Xanomeline Low Dose","Baseline",0,"QTCF","QTcF","msec",449.1,449.1,0,"Y"
"01-708-1213","Clinical Site 708","708","F","WHITE",76,"Xanomeline Low Dose","Week 2",2,"QTCF","QTcF","msec",567.2,449.1,118.1,""
"01-708-1213","Clinical Site 708","708","F","WHITE",76,"Xanomeline Low Dose","Week 4",4,"QTCF","QTcF","msec",484.7,449.1,35.6,""
"01-708-1216","Clinical Site 708","708","M","WHITE",78,"Xanomeline High Dose","Baseline",0,"QTCF","QTcF","msec",514.8,514.8,0,"Y"
"01-708-1216","Clinical Site 708","708","M","WHITE",78,"Xanomeline High Dose","Week 2",2,"QTCF","QTcF","msec",462.3,514.8,-52.5,""
"01-708-1216","Clinical Site 708","708","M","WHITE",78,"Xanomeline High Dose","Week 4",4,"QTCF","QTcF","msec",510.1,514.8,-4.7,""
"01-708-1216","Clinical Site 708","708","M","WHITE",78,"Xanomeline High Dose","Week 6",6,"QTCF","QTcF","msec",416.9,514.8,-97.9,""
"01-708-1236","Clinical Site 708","708","F","WHITE",86,"Xanomeline Low Dose","Baseline",0,"QTCF","QTcF","msec",452.2,452.2,0,"Y"
"01-708-1253","Clinical Site 708","708","M","WHITE",61,"Placebo","Baseline",0,"QTCF","QTcF","msec",581.8,581.8,0,"Y"
"01-708-1253","Clinical Site 708","708","M","WHITE",61,"Placebo","Week 2",2,"QTCF","QTcF","msec",540.5,581.8,-41.3,""
"01-708-1253","Clinical Site 708","708","M","WHITE",61,"Placebo","Week 4",4,"QTCF","QTcF","msec",613.5,581.8,31.7,""
"01-708-1253","Clinical Site 708","708","M","WHITE",61,"Placebo","Week 6",6,"QTCF","QTcF","msec",495.5,581.8,-86.3,""
"01-708-1253","Clinical Site 708","708","M","WHITE",61,"Placebo","Week 8",8,"QTCF","QTcF","msec",483.1,581.8,-98.7,""
"01-708-1253","Clinical Site 708","708","M","WHITE",61,"Placebo","Week 12",12,"QTCF","QTcF","msec",599.3,581.8,17.5,""
"01-708-1253","Clinical Site 708","708","M","WHITE",61,"Placebo","Week 16",16,"QTCF","QTcF","msec",563.2,581.8,-18.6,""
"01-708-1253","Clinical Site 708","708","M","WHITE",61,"Placebo","Week 20",20,"QTCF","QTcF","msec",505.3,581.8,-76.5,""
"01-708-1253","Clinical Site 708","708","M","WHITE",61,"Placebo","Week 24",24,"QTCF","QTcF","msec",537,581.8,-44.8,""
"01-708-1253","Clinical Site 708","708","M","WHITE",61,"Placebo","Week 26",26,"QTCF","QTcF","msec",477.2,581.8,-104.6,""
"01-708-1272","Clinical Site 708","708","M","WHITE",82,"Xanomeline Low Dose","Baseline",0,"QTCF","QTcF","msec",427.1,427.1,0,"Y"
"01-708-1272","Clinical Site 708","708","M","WHITE",82,"Xanomeline Low Dose","Week 2",2,"QTCF","QTcF","msec",457.6,427.1,30.5,""
"01-708-1272","Clinical Site 708","708","M","WHITE",82,"Xanomeline Low Dose","Week 4",4,"QTCF","QTcF","msec",527.2,427.1,100.1,""
"01-708-1272","Clinical Site 708","708","M","WHITE",82,"Xanomeline Low Dose","Week 6",6,"QTCF","QTcF","msec",480,427.1,52.9,""
"01-708-1272","Clinical Site 708","708","M","WHITE",82,"Xanomeline Low Dose","Week 8",8,"QTCF","QTcF","msec",424.6,427.1,-2.5,""
"01-708-1286","Clinical Site 708","708","F","BLACK OR AFRICAN AMERICAN",80,"Placebo","Baseline",0,"QTCF","QTcF","msec",436.7,436.7,0,"Y"
"01-708-1286","Clinical Site 708","708","F","BLACK OR AFRICAN AMERICAN",80,"Placebo","Week 2",2,"QTCF","QTcF","msec",515.1,436.7,78.4,""
"01-708-1286","Clinical Site 708","708","F","BLACK OR AFRICAN AMERICAN",80,"Placebo","Week 4",4,"QTCF","QTcF","msec",599.9,436.7,163.2,""
"01-708-1286","Clinical Site 708","708","F","BLACK OR AFRICAN AMERICAN",80,"Placebo","Week 6",6,"QTCF","QTcF","msec",462.7,436.7,26,""
"01-708-1286","Clinical Site 708","708","F","BLACK OR AFRICAN AMERICAN",80,"Placebo","Week 8",8,"QTCF","QTcF","msec",480,436.7,43.3,""
"01-708-1286","Clinical Site 708","708","F","BLACK OR AFRICAN AMERICAN",80,"Placebo","Week 12",12,"QTCF","QTcF","msec",408,436.7,-28.7,""
"01-708-1286","Clinical Site 708","708","F","BLACK OR AFRICAN AMERICAN",80,"Placebo","Week 16",16,"QTCF","QTcF","msec",504,436.7,67.3,""
"01-708-1286","Clinical Site 708","708","F","BLACK OR AFRICAN AMERICAN",80,"Placebo","Week 20",20,"QTCF","QTcF","msec",444,436.7,7.3,""
"01-708-1286","Clinical Site 708","708","F","BLACK OR AFRICAN AMERICAN",80,"Placebo","Week 24",24,"QTCF","QTcF","msec",375.3,436.7,-61.4,""
"01-708-1286","Clinical Site 708","708","F","BLACK OR AFRICAN AMERICAN",80,"Placebo","Week 26",26,"QTCF","QTcF","msec",528.3,436.7,91.6,""
"01-708-1296","Clinical Site 708","708","M","BLACK OR AFRICAN AMERICAN",57,"Placebo","Baseline",0,"QTCF","QTcF","msec",528.3,528.3,0,"Y"
"01-708-1296","Clinical Site 708","708","M","BLACK OR AFRICAN AMERICAN",57,"Placebo","Week 2",2,"QTCF","QTcF","msec",458.4,528.3,-69.9,""
"01-708-1296","Clinical Site 708","708","M","BLACK OR AFRICAN AMERICAN",57,"Placebo","Week 4",4,"QTCF","QTcF","msec",563.8,528.3,35.5,""
"01-708-1296","Clinical Site 708","708","M","BLACK OR AFRICAN AMERICAN",57,"Placebo","Week 6",6,"QTCF","QTcF","msec",495.5,528.3,-32.8,""
"01-708-1296","Clinical Site 708","708","M","BLACK OR AFRICAN AMERICAN",57,"Placebo","Week 8",8,"QTCF","QTcF","msec",492.7,528.3,-35.6,""
"01-708-1296","Clinical Site 708","708","M","BLACK OR AFRICAN AMERICAN",57,"Placebo","Week 12",12,"QTCF","QTcF","msec",571.3,528.3,43,""
"01-708-1296","Clinical Site 708","708","M","BLACK OR AFRICAN AMERICAN",57,"Placebo","Week 16",16,"QTCF","QTcF","msec",532.3,528.3,4,""
"01-708-1296","Clinical Site 708","708","M","BLACK OR AFRICAN AMERICAN",57,"Placebo","Week 20",20,"QTCF","QTcF","msec",554.7,528.3,26.4,""
"01-708-1296","Clinical Site 708","708","M","BLACK OR AFRICAN AMERICAN",57,"Placebo","Week 24",24,"QTCF","QTcF","msec",545.3,528.3,17,""
"01-708-1296","Clinical Site 708","708","M","BLACK OR AFRICAN AMERICAN",57,"Placebo","Week 26",26,"QTCF","QTcF","msec",627.2,528.3,98.9,""
"01-708-1297","Clinical Site 708","708","M","WHITE",61,"Xanomeline Low Dose","Baseline",0,"QTCF","QTcF","msec",485.3,485.3,0,"Y"
"01-708-1297","Clinical Site 708","708","M","WHITE",61,"Xanomeline Low Dose","Week 2",2,"QTCF","QTcF","msec",449.1,485.3,-36.2,""
"01-708-1297","Clinical Site 708","708","M","WHITE",61,"Xanomeline Low Dose","Week 4",4,"QTCF","QTcF","msec",492.7,485.3,7.4,""
"01-708-1297","Clinical Site 708","708","M","WHITE",61,"Xanomeline Low Dose","Week 6",6,"QTCF","QTcF","msec",478.2,485.3,-7.1,""
"01-708-1297","Clinical Site 708","708","M","WHITE",61,"Xanomeline Low Dose","Week 8",8,"QTCF","QTcF","msec",458.3,485.3,-27,""
"01-708-1297","Clinical Site 708","708","M","WHITE",61,"Xanomeline Low Dose","Week 12",12,"QTCF","QTcF","msec",510.1,485.3,24.8,""
"01-708-1297","Clinical Site 708","708","M","WHITE",61,"Xanomeline Low Dose","Week 16",16,"QTCF","QTcF","msec",504,485.3,18.7,""
"01-708-1316","Clinical Site 708","708","F","WHITE",74,"Placebo","Baseline",0,"QTCF","QTcF","msec",510.1,510.1,0,"Y"
"01-708-1316","Clinical Site 708","708","F","WHITE",74,"Placebo","Week 2",2,"QTCF","QTcF","msec",501.9,510.1,-8.2,""
"01-708-1316","Clinical Site 708","708","F","WHITE",74,"Placebo","Week 4",4,"QTCF","QTcF","msec",428.5,510.1,-81.6,""
"01-708-1316","Clinical Site 708","708","F","WHITE",74,"Placebo","Week 6",6,"QTCF","QTcF","msec",331.5,510.1,-178.6,""
"01-708-1316","Clinical Site 708","708","F","WHITE",74,"Placebo","Week 8",8,"QTCF","QTcF","msec",446.3,510.1,-63.8,""
"01-708-1316","Clinical Site 708","708","F","WHITE",74,"Placebo","Week 12",12,"QTCF","QTcF","msec",445.3,510.1,-64.8,""
"01-708-1316","Clinical Site 708","708","F","WHITE",74,"Placebo","Week 16",16,"QTCF","QTcF","msec",367.8,510.1,-142.3,""
"01-708-1316","Clinical Site 708","708","F","WHITE",74,"Placebo","Week 20",20,"QTCF","QTcF","msec",490.8,510.1,-19.3,""
"01-708-1316","Clinical Site 708","708","F","WHITE",74,"Placebo","Week 24",24,"QTCF","QTcF","msec",490.4,510.1,-19.7,""
"01-708-1316","Clinical Site 708","708","F","WHITE",74,"Placebo","Week 26",26,"QTCF","QTcF","msec",462.9,510.1,-47.2,""
"01-708-1336","Clinical Site 708","708","M","WHITE",73,"Xanomeline High Dose","Baseline",0,"QTCF","QTcF","msec",429.1,429.1,0,"Y"
"01-708-1336","Clinical Site 708","708","M","WHITE",73,"Xanomeline High Dose","Week 2",2,"QTCF","QTcF","msec",505.3,429.1,76.2,""
"01-708-1336","Clinical Site 708","708","M","WHITE",73,"Xanomeline High Dose","Week 4",4,"QTCF","QTcF","msec",576.3,429.1,147.2,""
"01-708-1336","Clinical Site 708","708","M","WHITE",73,"Xanomeline High Dose","Week 6",6,"QTCF","QTcF","msec",420,429.1,-9.1,""
"01-708-1336","Clinical Site 708","708","M","WHITE",73,"Xanomeline High Dose","Week 8",8,"QTCF","QTcF","msec",468,429.1,38.9,""
"01-708-1336","Clinical Site 708","708","M","WHITE",73,"Xanomeline High Dose","Week 12",12,"QTCF","QTcF","msec",453.7,429.1,24.6,""
"01-708-1336","Clinical Site 708","708","M","WHITE",73,"Xanomeline High Dose","Week 16",16,"QTCF","QTcF","msec",468,429.1,38.9,""
"01-708-1336","Clinical Site 708","708","M","WHITE",73,"Xanomeline High Dose","Week 20",20,"QTCF","QTcF","msec",532.3,429.1,103.2,""
"01-708-1336","Clinical Site 708","708","M","WHITE",73,"Xanomeline High Dose","Week 24",24,"QTCF","QTcF","msec",528.3,429.1,99.2,""
"01-708-1336","Clinical Site 708","708","M","WHITE",73,"Xanomeline High Dose","Week 26",26,"QTCF","QTcF","msec",457.4,429.1,28.3,""
"01-708-1342","Clinical Site 708","708","F","WHITE",59,"Placebo","Baseline",0,"QTCF","QTcF","msec",510.1,510.1,0,"Y"
"01-708-1342","Clinical Site 708","708","F","WHITE",59,"Placebo","Week 2",2,"QTCF","QTcF","msec",581.1,510.1,71,""
"01-708-1342","Clinical Site 708","708","F","WHITE",59,"Placebo","Week 4",4,"QTCF","QTcF","msec",558.3,510.1,48.2,""
"01-708-1342","Clinical Site 708","708","F","WHITE",59,"Placebo","Week 6",6,"QTCF","QTcF","msec",572.6,510.1,62.5,""
"01-708-1342","Clinical Site 708","708","F","WHITE",59,"Placebo","Week 8",8,"QTCF","QTcF","msec",490.4,510.1,-19.7,""
"01-708-1342","Clinical Site 708","708","F","WHITE",59,"Placebo","Week 12",12,"QTCF","QTcF","msec",462.3,510.1,-47.8,""
"01-708-1342","Clinical Site 708","708","F","WHITE",59,"Placebo","Week 16",16,"QTCF","QTcF","msec",490.4,510.1,-19.7,""
"01-708-1342","Clinical Site 708","708","F","WHITE",59,"Placebo","Week 20",20,"QTCF","QTcF","msec",365.9,510.1,-144.2,""
"01-708-1342","Clinical Site 708","708","F","WHITE",59,"Placebo","Week 24",24,"QTCF","QTcF","msec",573.8,510.1,63.7,""
"01-708-1342","Clinical Site 708","708","F","WHITE",59,"Placebo","Week 26",26,"QTCF","QTcF","msec",492,510.1,-18.1,""
"01-708-1347","Clinical Site 708","708","F","WHITE",61,"Xanomeline High Dose","Baseline",0,"QTCF","QTcF","msec",581.1,581.1,0,"Y"
"01-708-1347","Clinical Site 708","708","F","WHITE",61,"Xanomeline High Dose","Week 2",2,"QTCF","QTcF","msec",532.7,581.1,-48.4,""
"01-708-1347","Clinical Site 708","708","F","WHITE",61,"Xanomeline High Dose","Week 4",4,"QTCF","QTcF","msec",382.6,581.1,-198.5,""
"01-708-1347","Clinical Site 708","708","F","WHITE",61,"Xanomeline High Dose","Week 6",6,"QTCF","QTcF","msec",497.3,581.1,-83.8,""
"01-708-1347","Clinical Site 708","708","F","WHITE",61,"Xanomeline High Dose","Week 8",8,"QTCF","QTcF","msec",458.4,581.1,-122.7,""
"01-708-1347","Clinical Site 708","708","F","WHITE",61,"Xanomeline High Dose","Week 12",12,"QTCF","QTcF","msec",537,581.1,-44.1,""
"01-708-1348","Clinical Site 708","708","F","WHITE",79,"Xanomeline Low Dose","Baseline",0,"QTCF","QTcF","msec",510.1,510.1,0,"Y"
"01-708-1348","Clinical Site 708","708","F","WHITE",79,"Xanomeline Low Dose","Week 2",2,"QTCF","QTcF","msec",622.4,510.1,112.3,""
"01-708-1348","Clinical Site 708","708","F","WHITE",79,"Xanomeline Low Dose","Week 4",4,"QTCF","QTcF","msec",502.7,510.1,-7.4,""
"01-708-1348","Clinical Site 708","708","F","WHITE",79,"Xanomeline Low Dose","Week 6",6,"QTCF","QTcF","msec",576.3,510.1,66.2,""
"01-708-1348","Clinical Site 708","708","F","WHITE",79,"Xanomeline Low Dose","Week 8",8,"QTCF","QTcF","msec",548.3,510.1,38.2,""
"01-708-1348","Clinical Site 708","708","F","WHITE",79,"Xanomeline Low Dose","Week 12",12,"QTCF","QTcF","msec",502.7,510.1,-7.4,""
"01-708-1348","Clinical Site 708","708","F","WHITE",79,"Xanomeline Low Dose","Week 16",16,"QTCF","QTcF","msec",436.7,510.1,-73.4,""
"01-708-1348","Clinical Site 708","708","F","WHITE",79,"Xanomeline Low Dose","Week 20",20,"QTCF","QTcF","msec",510.1,510.1,0,""
"01-708-1348","Clinical Site 708","708","F","WHITE",79,"Xanomeline Low Dose","Week 24",24,"QTCF","QTcF","msec",470.7,510.1,-39.4,""
"01-708-1348","Clinical Site 708","708","F","WHITE",79,"Xanomeline Low Dose","Week 26",26,"QTCF","QTcF","msec",437.9,510.1,-72.2,""
"01-708-1353","Clinical Site 708","708","F","BLACK OR AFRICAN AMERICAN",87,"Xanomeline Low Dose","Baseline",0,"QTCF","QTcF","msec",404.3,404.3,0,"Y"
"01-708-1353","Clinical Site 708","708","F","BLACK OR AFRICAN AMERICAN",87,"Xanomeline Low Dose","Week 2",2,"QTCF","QTcF","msec",433.6,404.3,29.3,""
"01-708-1353","Clinical Site 708","708","F","BLACK OR AFRICAN AMERICAN",87,"Xanomeline Low Dose","Week 4",4,"QTCF","QTcF","msec",466.1,404.3,61.8,""
"01-708-1353","Clinical Site 708","708","F","BLACK OR AFRICAN AMERICAN",87,"Xanomeline Low Dose","Week 6",6,"QTCF","QTcF","msec",399.5,404.3,-4.8,""
"01-708-1353","Clinical Site 708","708","F","BLACK OR AFRICAN AMERICAN",87,"Xanomeline Low Dose","Week 8",8,"QTCF","QTcF","msec",371.6,404.3,-32.7,""
"01-708-1372","Clinical Site 708","708","M","WHITE",84,"Xanomeline Low Dose","Baseline",0,"QTCF","QTcF","msec",518.1,518.1,0,"Y"
"01-708-1372","Clinical Site 708","708","M","WHITE",84,"Xanomeline Low Dose","Week 2",2,"QTCF","QTcF","msec",640.2,518.1,122.1,""
"01-708-1378","Clinical Site 708","708","M","BLACK OR AFRICAN AMERICAN",67,"Placebo","Baseline",0,"QTCF","QTcF","msec",495.5,495.5,0,"Y"
"01-708-1378","Clinical Site 708","708","M","BLACK OR AFRICAN AMERICAN",67,"Placebo","Week 2",2,"QTCF","QTcF","msec",480,495.5,-15.5,""
"01-708-1378","Clinical Site 708","708","M","BLACK OR AFRICAN AMERICAN",67,"Placebo","Week 4",4,"QTCF","QTcF","msec",515,495.5,19.5,""
"01-708-1378","Clinical Site 708","708","M","BLACK OR AFRICAN AMERICAN",67,"Placebo","Week 6",6,"QTCF","QTcF","msec",492,495.5,-3.5,""
"01-708-1378","Clinical Site 708","708","M","BLACK OR AFRICAN AMERICAN",67,"Placebo","Week 8",8,"QTCF","QTcF","msec",384,495.5,-111.5,""
"01-708-1378","Clinical Site 708","708","M","BLACK OR AFRICAN AMERICAN",67,"Placebo","Week 12",12,"QTCF","QTcF","msec",408,495.5,-87.5,""
"01-708-1378","Clinical Site 708","708","M","BLACK OR AFRICAN AMERICAN",67,"Placebo","Week 16",16,"QTCF","QTcF","msec",380.1,495.5,-115.4,""
"01-708-1378","Clinical Site 708","708","M","BLACK OR AFRICAN AMERICAN",67,"Placebo","Week 20",20,"QTCF","QTcF","msec",408,495.5,-87.5,""
"01-708-1406","Clinical Site 708","708","F","WHITE",71,"Xanomeline High Dose","Baseline",0,"QTCF","QTcF","msec",576.3,576.3,0,"Y"
"01-708-1406","Clinical Site 708","708","F","WHITE",71,"Xanomeline High Dose","Week 2",2,"QTCF","QTcF","msec",532.7,576.3,-43.6,""
"01-708-1406","Clinical Site 708","708","F","WHITE",71,"Xanomeline High Dose","Week 4",4,"QTCF","QTcF","msec",655,576.3,78.7,""
"01-708-1406","Clinical Site 708","708","F","WHITE",71,"Xanomeline High Dose","Week 6",6,"QTCF","QTcF","msec",523.5,576.3,-52.8,""
"01-708-1406","Clinical Site 708","708","F","WHITE",71,"Xanomeline High Dose","Week 8",8,"QTCF","QTcF","msec",466.1,576.3,-110.2,""
"01-708-1406","Clinical Site 708","708","F","WHITE",71,"Xanomeline High Dose","Week 12",12,"QTCF","QTcF","msec",581.1,576.3,4.8,""
"01-708-1406","Clinical Site 708","708","F","WHITE",71,"Xanomeline High Dose","Week 16",16,"QTCF","QTcF","msec",523.5,576.3,-52.8,""
"01-708-1406","Clinical Site 708","708","F","WHITE",71,"Xanomeline High Dose","Week 20",20,"QTCF","QTcF","msec",449.1,576.3,-127.2,""
"01-708-1406","Clinical Site 708","708","F","WHITE",71,"Xanomeline High Dose","Week 24",24,"QTCF","QTcF","msec",607.6,576.3,31.3,""
"01-708-1406","Clinical Site 708","708","F","WHITE",71,"Xanomeline High Dose","Week 26",26,"QTCF","QTcF","msec",515.1,576.3,-61.2,""
"01-708-1428","Clinical Site 708","708","F","WHITE",84,"Xanomeline Low Dose","Baseline",0,"QTCF","QTcF","msec",599.9,599.9,0,"Y"
"01-708-1428","Clinical Site 708","708","F","WHITE",84,"Xanomeline Low Dose","Week 2",2,"QTCF","QTcF","msec",573.8,599.9,-26.1,""
"01-708-1428","Clinical Site 708","708","F","WHITE",84,"Xanomeline Low Dose","Week 4",4,"QTCF","QTcF","msec",505.3,599.9,-94.6,""
"01-708-1428","Clinical Site 708","708","F","WHITE",84,"Xanomeline Low Dose","Week 6",6,"QTCF","QTcF","msec",437.9,599.9,-162,""
"01-709-1001","Clinical Site 709","709","F","WHITE",76,"Placebo","Baseline",0,"QTCF","QTcF","msec",540.6,540.6,0,"Y"
"01-709-1001","Clinical Site 709","709","F","WHITE",76,"Placebo","Week 2",2,"QTCF","QTcF","msec",478.2,540.6,-62.4,""
"01-709-1001","Clinical Site 709","709","F","WHITE",76,"Placebo","Week 4",4,"QTCF","QTcF","msec",495.5,540.6,-45.1,""
"01-709-1001","Clinical Site 709","709","F","WHITE",76,"Placebo","Week 6",6,"QTCF","QTcF","msec",458.4,540.6,-82.2,""
"01-709-1001","Clinical Site 709","709","F","WHITE",76,"Placebo","Week 8",8,"QTCF","QTcF","msec",495.5,540.6,-45.1,""
"01-709-1001","Clinical Site 709","709","F","WHITE",76,"Placebo","Week 12",12,"QTCF","QTcF","msec",382.6,540.6,-158,""
"01-709-1001","Clinical Site 709","709","F","WHITE",76,"Placebo","Week 16",16,"QTCF","QTcF","msec",522.8,540.6,-17.8,""
"01-709-1001","Clinical Site 709","709","F","WHITE",76,"Placebo","Week 20",20,"QTCF","QTcF","msec",522.8,540.6,-17.8,""
"01-709-1001","Clinical Site 709","709","F","WHITE",76,"Placebo","Week 24",24,"QTCF","QTcF","msec",500.1,540.6,-40.5,""
"01-709-1001","Clinical Site 709","709","F","WHITE",76,"Placebo","Week 26",26,"QTCF","QTcF","msec",468,540.6,-72.6,""
"01-709-1007","Clinical Site 709","709","F","WHITE",54,"Xanomeline Low Dose","Baseline",0,"QTCF","QTcF","msec",536.7,536.7,0,"Y"
"01-709-1007","Clinical Site 709","709","F","WHITE",54,"Xanomeline Low Dose","Week 2",2,"QTCF","QTcF","msec",504.1,536.7,-32.6,""
"01-709-1007","Clinical Site 709","709","F","WHITE",54,"Xanomeline Low Dose","Week 4",4,"QTCF","QTcF","msec",417.1,536.7,-119.6,""
"01-709-1020","Clinical Site 709","709","F","WHITE",72,"Xanomeline Low Dose","Baseline",0,"QTCF","QTcF","msec",528,528,0,"Y"
"01-709-1020","Clinical Site 709","709","F","WHITE",72,"Xanomeline Low Dose","Week 2",2,"QTCF","QTcF","msec",573.8,528,45.8,""
"01-709-1020","Clinical Site 709","709","F","WHITE",72,"Xanomeline Low Dose","Week 4",4,"QTCF","QTcF","msec",616,528,88,""
"01-709-1020","Clinical Site 709","709","F","WHITE",72,"Xanomeline Low Dose","Week 6",6,"QTCF","QTcF","msec",573.8,528,45.8,""
"01-709-1020","Clinical Site 709","709","F","WHITE",72,"Xanomeline Low Dose","Week 8",8,"QTCF","QTcF","msec",495.5,528,-32.5,""
"01-709-1020","Clinical Site 709","709","F","WHITE",72,"Xanomeline Low Dose","Week 12",12,"QTCF","QTcF","msec",620.5,528,92.5,""
"01-709-1020","Clinical Site 709","709","F","WHITE",72,"Xanomeline Low Dose","Week 16",16,"QTCF","QTcF","msec",509.8,528,-18.2,""
"01-709-1020","Clinical Site 709","709","F","WHITE",72,"Xanomeline Low Dose","Week 20",20,"QTCF","QTcF","msec",450.9,528,-77.1,""
"01-709-1020","Clinical Site 709","709","F","WHITE",72,"Xanomeline Low Dose","Week 24",24,"QTCF","QTcF","msec",515.5,528,-12.5,""
"01-709-1020","Clinical Site 709","709","F","WHITE",72,"Xanomeline Low Dose","Week 26",26,"QTCF","QTcF","msec",495.5,528,-32.5,""
"01-709-1029","Clinical Site 709","709","M","WHITE",82,"Xanomeline High Dose","Baseline",0,"QTCF","QTcF","msec",427.1,427.1,0,"Y"
"01-709-1029","Clinical Site 709","709","M","WHITE",82,"Xanomeline High Dose","Week 2",2,"QTCF","QTcF","msec",437.9,427.1,10.8,""
"01-709-1029","Clinical Site 709","709","M","WHITE",82,"Xanomeline High Dose","Week 4",4,"QTCF","QTcF","msec",532.7,427.1,105.6,""
"01-709-1029","Clinical Site 709","709","M","WHITE",82,"Xanomeline High Dose","Week 6",6,"QTCF","QTcF","msec",429.1,427.1,2,""
"01-709-1029","Clinical Site 709","709","M","WHITE",82,"Xanomeline High Dose","Week 8",8,"QTCF","QTcF","msec",471.5,427.1,44.4,""
"01-709-1029","Clinical Site 709","709","M","WHITE",82,"Xanomeline High Dose","Week 12",12,"QTCF","QTcF","msec",410.5,427.1,-16.6,""
"01-709-1029","Clinical Site 709","709","M","WHITE",82,"Xanomeline High Dose","Week 16",16,"QTCF","QTcF","msec",471.8,427.1,44.7,""
"01-709-1029","Clinical Site 709","709","M","WHITE",82,"Xanomeline High Dose","Week 20",20,"QTCF","QTcF","msec",471.5,427.1,44.4,""
"01-709-1029","Clinical Site 709","709","M","WHITE",82,"Xanomeline High Dose","Week 24",24,"QTCF","QTcF","msec",382.3,427.1,-44.8,""
"01-709-1029","Clinical Site 709","709","M","WHITE",82,"Xanomeline High Dose","Week 26",26,"QTCF","QTcF","msec",359.2,427.1,-67.9,""
"01-709-1081","Clinical Site 709","709","F","WHITE",86,"Xanomeline Low Dose","Baseline",0,"QTCF","QTcF","msec",375.3,375.3,0,"Y"
"01-709-1081","Clinical Site 709","709","F","WHITE",86,"Xanomeline Low Dose","Week 2",2,"QTCF","QTcF","msec",432.2,375.3,56.9,""
"01-709-1081","Clinical Site 709","709","F","WHITE",86,"Xanomeline Low Dose","Week 4",4,"QTCF","QTcF","msec",433.9,375.3,58.6,""
"01-709-1081","Clinical Site 709","709","F","WHITE",86,"Xanomeline Low Dose","Week 6",6,"QTCF","QTcF","msec",406,375.3,30.7,""
"01-709-1081","Clinical Site 709","709","F","WHITE",86,"Xanomeline Low Dose","Week 8",8,"QTCF","QTcF","msec",504.5,375.3,129.2,""
"01-709-1081","Clinical Site 709","709","F","WHITE",86,"Xanomeline Low Dose","Week 12",12,"QTCF","QTcF","msec",408,375.3,32.7,""
"01-709-1081","Clinical Site 709","709","F","WHITE",86,"Xanomeline Low Dose","Week 16",16,"QTCF","QTcF","msec",376.1,375.3,0.8,""
"01-709-1088","Clinical Site 709","709","M","WHITE",69,"Placebo","Baseline",0,"QTCF","QTcF","msec",471.5,471.5,0,"Y"
"01-709-1088","Clinical Site 709","709","M","WHITE",69,"Placebo","Week 2",2,"QTCF","QTcF","msec",471.9,471.5,0.4,""
"01-709-1088","Clinical Site 709","709","M","WHITE",69,"Placebo","Week 4",4,"QTCF","QTcF","msec",468,471.5,-3.5,""
"01-709-1088","Clinical Site 709","709","M","WHITE",69,"Placebo","Week 6",6,"QTCF","QTcF","msec",495.5,471.5,24,""
"01-709-1088","Clinical Site 709","709","M","WHITE",69,"Placebo","Week 8",8,"QTCF","QTcF","msec",542.9,471.5,71.4,""
"01-709-1088","Clinical Site 709","709","M","WHITE",69,"Placebo","Week 12",12,"QTCF","QTcF","msec",451.3,471.5,-20.2,""
"01-709-1088","Clinical Site 709","709","M","WHITE",69,"Placebo","Week 16",16,"QTCF","QTcF","msec",420,471.5,-51.5,""
"01-709-1088","Clinical Site 709","709","M","WHITE",69,"Placebo","Week 20",20,"QTCF","QTcF","msec",475.7,471.5,4.2,""
"01-709-1088","Clinical Site 709","709","M","WHITE",69,"Placebo","Week 24",24,"QTCF","QTcF","msec",487.9,471.5,16.4,""
"01-709-1088","Clinical Site 709","709","M","WHITE",69,"Placebo","Week 26",26,"QTCF","QTcF","msec",475.7,471.5,4.2,""
"01-709-1099","Clinical Site 709","709","F","WHITE",79,"Xanomeline High Dose","Baseline",0,"QTCF","QTcF","msec",487.9,487.9,0,"Y"
"01-709-1099","Clinical Site 709","709","F","WHITE",79,"Xanomeline High Dose","Week 2",2,"QTCF","QTcF","msec",523.9,487.9,36,""
"01-709-1099","Clinical Site 709","709","F","WHITE",79,"Xanomeline High Dose","Week 4",4,"QTCF","QTcF","msec",515.5,487.9,27.6,""
"01-709-1099","Clinical Site 709","709","F","WHITE",79,"Xanomeline High Dose","Week 6",6,"QTCF","QTcF","msec",440,487.9,-47.9,""
"01-709-1099","Clinical Site 709","709","F","WHITE",79,"Xanomeline High Dose","Week 8",8,"QTCF","QTcF","msec",530,487.9,42.1,""
"01-709-1099","Clinical Site 709","709","F","WHITE",79,"Xanomeline High Dose","Week 12",12,"QTCF","QTcF","msec",550.4,487.9,62.5,""
"01-709-1099","Clinical Site 709","709","F","WHITE",79,"Xanomeline High Dose","Week 16",16,"QTCF","QTcF","msec",510.8,487.9,22.9,""
"01-709-1099","Clinical Site 709","709","F","WHITE",79,"Xanomeline High Dose","Week 20",20,"QTCF","QTcF","msec",452.4,487.9,-35.5,""
"01-709-1099","Clinical Site 709","709","F","WHITE",79,"Xanomeline High Dose","Week 24",24,"QTCF","QTcF","msec",487.9,487.9,0,""
"01-709-1099","Clinical Site 709","709","F","WHITE",79,"Xanomeline High Dose","Week 26",26,"QTCF","QTcF","msec",440,487.9,-47.9,""
"01-709-1102","Clinical Site 709","709","F","WHITE",71,"Xanomeline Low Dose","Baseline",0,"QTCF","QTcF","msec",465.4,465.4,0,"Y"
"01-709-1102","Clinical Site 709","709","F","WHITE",71,"Xanomeline Low Dose","Week 2",2,"QTCF","QTcF","msec",440,465.4,-25.4,""
"01-709-1102","Clinical Site 709","709","F","WHITE",71,"Xanomeline Low Dose","Week 4",4,"QTCF","QTcF","msec",510.1,465.4,44.7,""
"01-709-1102","Clinical Site 709","709","F","WHITE",71,"Xanomeline Low Dose","Week 6",6,"QTCF","QTcF","msec",517.1,465.4,51.7,""
"01-709-1102","Clinical Site 709","709","F","WHITE",71,"Xanomeline Low Dose","Week 8",8,"QTCF","QTcF","msec",542.9,465.4,77.5,""
"01-709-1102","Clinical Site 709","709","F","WHITE",71,"Xanomeline Low Dose","Week 12",12,"QTCF","QTcF","msec",408,465.4,-57.4,""
"01-709-1168","Clinical Site 709","709","F","WHITE",72,"Xanomeline High Dose","Baseline",0,"QTCF","QTcF","msec",515,515,0,"Y"
"01-709-1168","Clinical Site 709","709","F","WHITE",72,"Xanomeline High Dose","Week 2",2,"QTCF","QTcF","msec",474,515,-41,""
"01-709-1168","Clinical Site 709","709","F","WHITE",72,"Xanomeline High Dose","Week 4",4,"QTCF","QTcF","msec",456,515,-59,""
"01-709-1168","Clinical Site 709","709","F","WHITE",72,"Xanomeline High Dose","Week 6",6,"QTCF","QTcF","msec",530.6,515,15.6,""
"01-709-1168","Clinical Site 709","709","F","WHITE",72,"Xanomeline High Dose","Week 8",8,"QTCF","QTcF","msec",445.6,515,-69.4,""
"01-709-1217","Clinical Site 709","709","M","WHITE",77,"Xanomeline Low Dose","Baseline",0,"QTCF","QTcF","msec",393.9,393.9,0,"Y"
"01-709-1217","Clinical Site 709","709","M","WHITE",77,"Xanomeline Low Dose","Week 2",2,"QTCF","QTcF","msec",393.9,393.9,0,""
"01-709-1217","Clinical Site 709","709","M","WHITE",77,"Xanomeline Low Dose","Week 4",4,"QTCF","QTcF","msec",412.9,393.9,19,""
"01-709-1217","Clinical Site 709","709","M","WHITE",77,"Xanomeline Low Dose","Week 6",6,"QTCF","QTcF","msec",444,393.9,50.1,""
"01-709-1217","Clinical Site 709","709","M","WHITE",77,"Xanomeline Low Dose","Week 8",8,"QTCF","QTcF","msec",341,393.9,-52.9,""
"01-709-1217","Clinical Site 709","709","M","WHITE",77,"Xanomeline Low Dose","Week 12",12,"QTCF","QTcF","msec",395.3,393.9,1.4,""
"01-709-1217","Clinical Site 709","709","M","WHITE",77,"Xanomeline Low Dose","Week 16",16,"QTCF","QTcF","msec",363.8,393.9,-30.1,""
"01-709-1238","Clinical Site 709","709","M","WHITE",69,"Xanomeline High Dose","Baseline",0,"QTCF","QTcF","msec",510.8,510.8,0,"Y"
"01-709-1238","Clinical Site 709","709","M","WHITE",69,"Xanomeline High Dose","Week 2",2,"QTCF","QTcF","msec",631.6,510.8,120.8,""
"01-709-1238","Clinical Site 709","709","M","WHITE",69,"Xanomeline High Dose","Week 4",4,"QTCF","QTcF","msec",549.5,510.8,38.7,""
"01-709-1238","Clinical Site 709","709","M","WHITE",69,"Xanomeline High Dose","Week 6",6,"QTCF","QTcF","msec",501.9,510.8,-8.9,""
"01-709-1238","Clinical Site 709","709","M","WHITE",69,"Xanomeline High Dose","Week 8",8,"QTCF","QTcF","msec",543.3,510.8,32.5,""
"01-709-1238","Clinical Site 709","709","M","WHITE",69,"Xanomeline High Dose","Week 12",12,"QTCF","QTcF","msec",488.7,510.8,-22.1,""
"01-709-1259","Clinical Site 709","709","M","WHITE",82,"Placebo","Baseline",0,"QTCF","QTcF","msec",408,408,0,"Y"
"01-709-1259","Clinical Site 709","709","M","WHITE",82,"Placebo","Week 2",2,"QTCF","QTcF","msec",363.8,408,-44.2,""
"01-709-1259","Clinical Site 709","709","M","WHITE",82,"Placebo","Week 4",4,"QTCF","QTcF","msec",360,408,-48,""
"01-709-1259","Clinical Site 709","709","M","WHITE",82,"Placebo","Week 6",6,"QTCF","QTcF","msec",398.7,408,-9.3,""
"01-709-1259","Clinical Site 709","709","M","WHITE",82,"Placebo","Week 8",8,"QTCF","QTcF","msec",420,408,12,""
"01-709-1259","Clinical Site 709","709","M","WHITE",82,"Placebo","Week 12",12,"QTCF","QTcF","msec",360,408,-48,""
"01-709-1259","Clinical Site 709","709","M","WHITE",82,"Placebo","Week 16",16,"QTCF","QTcF","msec",401.1,408,-6.9,""
"01-709-1259","Clinical Site 709","709","M","WHITE",82,"Placebo","Week 20",20,"QTCF","QTcF","msec",393.9,408,-14.1,""
"01-709-1285","Clinical Site 709","709","M","WHITE",87,"Xanomeline Low Dose","Baseline",0,"QTCF","QTcF","msec",424.7,424.7,0,"Y"
"01-709-1285","Clinical Site 709","709","M","WHITE",87,"Xanomeline Low Dose","Week 2",2,"QTCF","QTcF","msec",432,424.7,7.3,""
"01-709-1285","Clinical Site 709","709","M","WHITE",87,"Xanomeline Low Dose","Week 4",4,"QTCF","QTcF","msec",433.6,424.7,8.9,""
"01-709-1285","Clinical Site 709","709","M","WHITE",87,"Xanomeline Low Dose","Week 6",6,"QTCF","QTcF","msec",420,424.7,-4.7,""
"01-709-1285","Clinical Site 709","709","M","WHITE",87,"Xanomeline Low Dose","Week 8",8,"QTCF","QTcF","msec",416.9,424.7,-7.8,""
"01-709-1285","Clinical Site 709","709","M","WHITE",87,"Xanomeline Low Dose","Week 12",12,"QTCF","QTcF","msec",378.8,424.7,-45.9,""
"01-709-1301","Clinical Site 709","709","F","WHITE",62,"Placebo","Baseline",0,"QTCF","QTcF","msec",626,626,0,"Y"
"01-709-1301","Clinical Site 709","709","F","WHITE",62,"Placebo","Week 2",2,"QTCF","QTcF","msec",555.8,626,-70.2,""
"01-709-1301","Clinical Site 709","709","F","WHITE",62,"Placebo","Week 4",4,"QTCF","QTcF","msec",539.7,626,-86.3,""
"01-709-1301","Clinical Site 709","709","F","WHITE",62,"Placebo","Week 6",6,"QTCF","QTcF","msec",593.7,626,-32.3,""
"01-709-1301","Clinical Site 709","709","F","WHITE",62,"Placebo","Week 8",8,"QTCF","QTcF","msec",631.9,626,5.9,""
"01-709-1301","Clinical Site 709","709","F","WHITE",62,"Placebo","Week 12",12,"QTCF","QTcF","msec",535.7,626,-90.3,""
"01-709-1301","Clinical Site 709","709","F","WHITE",62,"Placebo","Week 16",16,"QTCF","QTcF","msec",556.9,626,-69.1,""
"01-709-1301","Clinical Site 709","709","F","WHITE",62,"Placebo","Week 20",20,"QTCF","QTcF","msec",477.2,626,-148.8,""
"01-709-1301","Clinical Site 709","709","F","WHITE",62,"Placebo","Week 24",24,"QTCF","QTcF","msec",506.4,626,-119.6,""
"01-709-1301","Clinical Site 709","709","F","WHITE",62,"Placebo","Week 26",26,"QTCF","QTcF","msec",608.9,626,-17.1,""
"01-709-1306","Clinical Site 709","709","F","WHITE",60,"Placebo","Baseline",0,"QTCF","QTcF","msec",577.2,577.2,0,"Y"
"01-709-1306","Clinical Site 709","709","F","WHITE",60,"Placebo","Week 2",2,"QTCF","QTcF","msec",478.3,577.2,-98.9,""
"01-709-1306","Clinical Site 709","709","F","WHITE",60,"Placebo","Week 4",4,"QTCF","QTcF","msec",522.8,577.2,-54.4,""
"01-709-1306","Clinical Site 709","709","F","WHITE",60,"Placebo","Week 6",6,"QTCF","QTcF","msec",549.5,577.2,-27.7,""
"01-709-1306","Clinical Site 709","709","F","WHITE",60,"Placebo","Week 8",8,"QTCF","QTcF","msec",542.9,577.2,-34.3,""
"01-709-1306","Clinical Site 709","709","F","WHITE",60,"Placebo","Week 12",12,"QTCF","QTcF","msec",517.1,577.2,-60.1,""
"01-709-1306","Clinical Site 709","709","F","WHITE",60,"Placebo","Week 16",16,"QTCF","QTcF","msec",550.4,577.2,-26.8,""
"01-709-1306","Clinical Site 709","709","F","WHITE",60,"Placebo","Week 20",20,"QTCF","QTcF","msec",495.5,577.2,-81.7,""
"01-709-1309","Clinical Site 709","709","M","WHITE",65,"Xanomeline High Dose","Baseline",0,"QTCF","QTcF","msec",510.1,510.1,0,"Y"
"01-709-1309","Clinical Site 709","709","M","WHITE",65,"Xanomeline High Dose","Week 2",2,"QTCF","QTcF","msec",480,510.1,-30.1,""
"01-709-1309","Clinical Site 709","709","M","WHITE",65,"Xanomeline High Dose","Week 4",4,"QTCF","QTcF","msec",530,510.1,19.9,""
"01-709-1309","Clinical Site 709","709","M","WHITE",65,"Xanomeline High Dose","Week 6",6,"QTCF","QTcF","msec",581.7,510.1,71.6,""
"01-709-1309","Clinical Site 709","709","M","WHITE",65,"Xanomeline High Dose","Week 8",8,"QTCF","QTcF","msec",504,510.1,-6.1,""
"01-709-1309","Clinical Site 709","709","M","WHITE",65,"Xanomeline High Dose","Week 12",12,"QTCF","QTcF","msec",504.1,510.1,-6,""
"01-709-1309","Clinical Site 709","709","M","WHITE",65,"Xanomeline High Dose","Week 16",16,"QTCF","QTcF","msec",432,510.1,-78.1,""
"01-709-1309","Clinical Site 709","709","M","WHITE",65,"Xanomeline High Dose","Week 20",20,"QTCF","QTcF","msec",468,510.1,-42.1,""
"01-709-1309","Clinical Site 709","709","M","WHITE",65,"Xanomeline High Dose","Week 24",24,"QTCF","QTcF","msec",371.6,510.1,-138.5,""
"01-709-1309","Clinical Site 709","709","M","WHITE",65,"Xanomeline High Dose","Week 26",26,"QTCF","QTcF","msec",458.3,510.1,-51.8,""
"01-709-1312","Clinical Site 709","709","F","WHITE",68,"Placebo","Baseline",0,"QTCF","QTcF","msec",557.4,557.4,0,"Y"
"01-709-1312","Clinical Site 709","709","F","WHITE",68,"Placebo","Week 2",2,"QTCF","QTcF","msec",444,557.4,-113.4,""
"01-709-1312","Clinical Site 709","709","F","WHITE",68,"Placebo","Week 4",4,"QTCF","QTcF","msec",483.1,557.4,-74.3,""
"01-709-1312","Clinical Site 709","709","F","WHITE",68,"Placebo","Week 6",6,"QTCF","QTcF","msec",432,557.4,-125.4,""
"01-709-1312","Clinical Site 709","709","F","WHITE",68,"Placebo","Week 8",8,"QTCF","QTcF","msec",451.3,557.4,-106.1,""
"01-709-1312","Clinical Site 709","709","F","WHITE",68,"Placebo","Week 12",12,"QTCF","QTcF","msec",417.1,557.4,-140.3,""
"01-709-1312","Clinical Site 709","709","F","WHITE",68,"Placebo","Week 16",16,"QTCF","QTcF","msec",443.3,557.4,-114.1,""
"01-709-1312","Clinical Site 709","709","F","WHITE",68,"Placebo","Week 20",20,"QTCF","QTcF","msec",480,557.4,-77.4,""
"01-709-1312","Clinical Site 709","709","F","WHITE",68,"Placebo","Week 24",24,"QTCF","QTcF","msec",475.7,557.4,-81.7,""
"01-709-1312","Clinical Site 709","709","F","WHITE",68,"Placebo","Week 26",26,"QTCF","QTcF","msec",432,557.4,-125.4,""
"01-709-1326","Clinical Site 709","709","F","WHITE",75,"Xanomeline Low Dose","Baseline",0,"QTCF","QTcF","msec",596.8,596.8,0,"Y"
"01-709-1326","Clinical Site 709","709","F","WHITE",75,"Xanomeline Low Dose","Week 2",2,"QTCF","QTcF","msec",610.1,596.8,13.3,""
"01-709-1326","Clinical Site 709","709","F","WHITE",75,"Xanomeline Low Dose","Week 4",4,"QTCF","QTcF","msec",628.6,596.8,31.8,""
"01-709-1326","Clinical Site 709","709","F","WHITE",75,"Xanomeline Low Dose","Week 6",6,"QTCF","QTcF","msec",594.6,596.8,-2.2,""
"01-709-1326","Clinical Site 709","709","F","WHITE",75,"Xanomeline Low Dose","Week 8",8,"QTCF","QTcF","msec",535.6,596.8,-61.2,""
"01-709-1326","Clinical Site 709","709","F","WHITE",75,"Xanomeline Low Dose","Week 12",12,"QTCF","QTcF","msec",586.6,596.8,-10.2,""
"01-709-1326","Clinical Site 709","709","F","WHITE",75,"Xanomeline Low Dose","Week 16",16,"QTCF","QTcF","msec",594.6,596.8,-2.2,""
"01-709-1326","Clinical Site 709","709","F","WHITE",75,"Xanomeline Low Dose","Week 20",20,"QTCF","QTcF","msec",557.4,596.8,-39.4,""
"01-709-1326","Clinical Site 709","709","F","WHITE",75,"Xanomeline Low Dose","Week 24",24,"QTCF","QTcF","msec",618.1,596.8,21.3,""
"01-709-1326","Clinical Site 709","709","F","WHITE",75,"Xanomeline Low Dose","Week 26",26,"QTCF","QTcF","msec",510.1,596.8,-86.7,""
"01-709-1329","Clinical Site 709","709","M","WHITE",70,"Xanomeline Low Dose","Baseline",0,"QTCF","QTcF","msec",439.1,439.1,0,"Y"
"01-709-1329","Clinical Site 709","709","M","WHITE",70,"Xanomeline Low Dose","Week 2",2,"QTCF","QTcF","msec",420,439.1,-19.1,""
"01-709-1339","Clinical Site 709","709","M","WHITE",81,"Placebo","Baseline",0,"QTCF","QTcF","msec",432,432,0,"Y"
"01-709-1339","Clinical Site 709","709","M","WHITE",81,"Placebo","Week 2",2,"QTCF","QTcF","msec",416.9,432,-15.1,""
"01-709-1339","Clinical Site 709","709","M","WHITE",81,"Placebo","Week 4",4,"QTCF","QTcF","msec",436.7,432,4.7,""
"01-709-1339","Clinical Site 709","709","M","WHITE",81,"Placebo","Week 6",6,"QTCF","QTcF","msec",461,432,29,""
"01-709-1339","Clinical Site 709","709","M","WHITE",81,"Placebo","Week 8",8,"QTCF","QTcF","msec",391.6,432,-40.4,""
"01-709-1339","Clinical Site 709","709","M","WHITE",81,"Placebo","Week 12",12,"QTCF","QTcF","msec",459.1,432,27.1,""
"01-709-1339","Clinical Site 709","709","M","WHITE",81,"Placebo","Week 16",16,"QTCF","QTcF","msec",465.9,432,33.9,""
"01-709-1339","Clinical Site 709","709","M","WHITE",81,"Placebo","Week 20",20,"QTCF","QTcF","msec",493,432,61,""
"01-709-1339","Clinical Site 709","709","M","WHITE",81,"Placebo","Week 24",24,"QTCF","QTcF","msec",433.6,432,1.6,""
"01-709-1339","Clinical Site 709","709","M","WHITE",81,"Placebo","Week 26",26,"QTCF","QTcF","msec",465.9,432,33.9,""
"01-709-1424","Clinical Site 709","709","M","WHITE",77,"Xanomeline Low Dose","Baseline",0,"QTCF","QTcF","msec",432,432,0,"Y"
"01-709-1424","Clinical Site 709","709","M","WHITE",77,"Xanomeline Low Dose","Week 2",2,"QTCF","QTcF","msec",347.6,432,-84.4,""
"01-710-1002","Clinical Site 710","710","M","WHITE",88,"Xanomeline Low Dose","Baseline",0,"QTCF","QTcF","msec",420,420,0,"Y"
"01-710-1002","Clinical Site 710","710","M","WHITE",88,"Xanomeline Low Dose","Week 2",2,"QTCF","QTcF","msec",510.1,420,90.1,""
"01-710-1006","Clinical Site 710","710","M","WHITE",77,"Xanomeline High Dose","Baseline",0,"QTCF","QTcF","msec",469.1,469.1,0,"Y"
"01-710-1006","Clinical Site 710","710","M","WHITE",77,"Xanomeline High Dose","Week 2",2,"QTCF","QTcF","msec",519.4,469.1,50.3,""
"01-710-1006","Clinical Site 710","710","M","WHITE",77,"Xanomeline High Dose","Week 4",4,"QTCF","QTcF","msec",594.3,469.1,125.2,""
"01-710-1006","Clinical Site 710","710","M","WHITE",77,"Xanomeline High Dose","Week 6",6,"QTCF","QTcF","msec",563.8,469.1,94.7,""
"01-710-1006","Clinical Site 710","710","M","WHITE",77,"Xanomeline High Dose","Week 8",8,"QTCF","QTcF","msec",500.4,469.1,31.3,""
"01-710-1006","Clinical Site 710","710","M","WHITE",77,"Xanomeline High Dose","Week 12",12,"QTCF","QTcF","msec",510.1,469.1,41,""
"01-710-1006","Clinical Site 710","710","M","WHITE",77,"Xanomeline High Dose","Week 16",16,"QTCF","QTcF","msec",563,469.1,93.9,""
"01-710-1006","Clinical Site 710","710","M","WHITE",77,"Xanomeline High Dose","Week 20",20,"QTCF","QTcF","msec",400.4,469.1,-68.7,""
"01-710-1006","Clinical Site 710","710","M","WHITE",77,"Xanomeline High Dose","Week 24",24,"QTCF","QTcF","msec",490.4,469.1,21.3,""
"01-710-1006","Clinical Site 710","710","M","WHITE",77,"Xanomeline High Dose","Week 26",26,"QTCF","QTcF","msec",584.3,469.1,115.2,""
"01-710-1021","Clinical Site 710","710","M","BLACK OR AFRICAN AMERICAN",79,"Xanomeline High Dose","Baseline",0,"QTCF","QTcF","msec",584.3,584.3,0,"Y"
"01-710-1021","Clinical Site 710","710","M","BLACK OR AFRICAN AMERICAN",79,"Xanomeline High Dose","Week 2",2,"QTCF","QTcF","msec",561.1,584.3,-23.2,""
"01-710-1021","Clinical Site 710","710","M","BLACK OR AFRICAN AMERICAN",79,"Xanomeline High Dose","Week 4",4,"QTCF","QTcF","msec",551.7,584.3,-32.6,""
"01-710-1021","Clinical Site 710","710","M","BLACK OR AFRICAN AMERICAN",79,"Xanomeline High Dose","Week 6",6,"QTCF","QTcF","msec",528.3,584.3,-56,""
"01-710-1027","Clinical Site 710","710","M","WHITE",83,"Placebo","Baseline",0,"QTCF","QTcF","msec",545.4,545.4,0,"Y"
"01-710-1027","Clinical Site 710","710","M","WHITE",83,"Placebo","Week 2",2,"QTCF","QTcF","msec",469.8,545.4,-75.6,""
"01-710-1027","Clinical Site 710","710","M","WHITE",83,"Placebo","Week 4",4,"QTCF","QTcF","msec",462.3,545.4,-83.1,""
"01-710-1027","Clinical Site 710","710","M","WHITE",83,"Placebo","Week 6",6,"QTCF","QTcF","msec",528.3,545.4,-17.1,""
"01-710-1027","Clinical Site 710","710","M","WHITE",83,"Placebo","Week 8",8,"QTCF","QTcF","msec",462.3,545.4,-83.1,""
"01-710-1027","Clinical Site 710","710","M","WHITE",83,"Placebo","Week 12",12,"QTCF","QTcF","msec",473.5,545.4,-71.9,""
"01-710-1027","Clinical Site 710","710","M","WHITE",83,"Placebo","Week 16",16,"QTCF","QTcF","msec",443,545.4,-102.4,""
"01-710-1027","Clinical Site 710","710","M","WHITE",83,"Placebo","Week 20",20,"QTCF","QTcF","msec",454.4,545.4,-91,""
"01-710-1027","Clinical Site 710","710","M","WHITE",83,"Placebo","Week 24",24,"QTCF","QTcF","msec",553.5,545.4,8.1,""
"01-710-1027","Clinical Site 710","710","M","WHITE",83,"Placebo","Week 26",26,"QTCF","QTcF","msec",528.3,545.4,-17.1,""
"01-710-1045","Clinical Site 710","710","F","WHITE",83,"Xanomeline Low Dose","Baseline",0,"QTCF","QTcF","msec",551.7,551.7,0,"Y"
"01-710-1045","Clinical Site 710","710","F","WHITE",83,"Xanomeline Low Dose","Week 2",2,"QTCF","QTcF","msec",594.3,551.7,42.6,""
"01-710-1045","Clinical Site 710","710","F","WHITE",83,"Xanomeline Low Dose","Week 4",4,"QTCF","QTcF","msec",545.4,551.7,-6.3,""
"01-710-1045","Clinical Site 710","710","F","WHITE",83,"Xanomeline Low Dose","Week 6",6,"QTCF","QTcF","msec",523.5,551.7,-28.2,""
"01-710-1045","Clinical Site 710","710","F","WHITE",83,"Xanomeline Low Dose","Week 8",8,"QTCF","QTcF","msec",604.1,551.7,52.4,""
"01-710-1045","Clinical Site 710","710","F","WHITE",83,"Xanomeline Low Dose","Week 12",12,"QTCF","QTcF","msec",528.3,551.7,-23.4,""
"01-710-1053","Clinical Site 710","710","F","WHITE",84,"Xanomeline Low Dose","Baseline",0,"QTCF","QTcF","msec",480,480,0,"Y"
"01-710-1053","Clinical Site 710","710","F","WHITE",84,"Xanomeline Low Dose","Week 2",2,"QTCF","QTcF","msec",490.4,480,10.4,""
"01-710-1053","Clinical Site 710","710","F","WHITE",84,"Xanomeline Low Dose","Week 4",4,"QTCF","QTcF","msec",525.5,480,45.5,""
"01-710-1053","Clinical Site 710","710","F","WHITE",84,"Xanomeline Low Dose","Week 6",6,"QTCF","QTcF","msec",437.9,480,-42.1,""
"01-710-1053","Clinical Site 710","710","F","WHITE",84,"Xanomeline Low Dose","Week 8",8,"QTCF","QTcF","msec",497.3,480,17.3,""
"01-710-1060","Clinical Site 710","710","M","WHITE",82,"Placebo","Baseline",0,"QTCF","QTcF","msec",437.9,437.9,0,"Y"
"01-710-1060","Clinical Site 710","710","M","WHITE",82,"Placebo","Week 2",2,"QTCF","QTcF","msec",514.8,437.9,76.9,""
"01-710-1060","Clinical Site 710","710","M","WHITE",82,"Placebo","Week 4",4,"QTCF","QTcF","msec",551.7,437.9,113.8,""
"01-710-1060","Clinical Site 710","710","M","WHITE",82,"Placebo","Week 6",6,"QTCF","QTcF","msec",490.4,437.9,52.5,""
"01-710-1060","Clinical Site 710","710","M","WHITE",82,"Placebo","Week 8",8,"QTCF","QTcF","msec",540,437.9,102.1,""
"01-710-1060","Clinical Site 710","710","M","WHITE",82,"Placebo","Week 12",12,"QTCF","QTcF","msec",469.1,437.9,31.2,""
"01-710-1060","Clinical Site 710","710","M","WHITE",82,"Placebo","Week 16",16,"QTCF","QTcF","msec",527.7,437.9,89.8,""
"01-710-1060","Clinical Site 710","710","M","WHITE",82,"Placebo","Week 20",20,"QTCF","QTcF","msec",490.4,437.9,52.5,""
"01-710-1060","Clinical Site 710","710","M","WHITE",82,"Placebo","Week 24",24,"QTCF","QTcF","msec",576,437.9,138.1,""
"01-710-1060","Clinical Site 710","710","M","WHITE",82,"Placebo","Week 26",26,"QTCF","QTcF","msec",551.7,437.9,113.8,""
"01-710-1070","Clinical Site 710","710","F","WHITE",85,"Xanomeline High Dose","Baseline",0,"QTCF","QTcF","msec",454.4,454.4,0,"Y"
"01-710-1070","Clinical Site 710","710","F","WHITE",85,"Xanomeline High Dose","Week 2",2,"QTCF","QTcF","msec",441.4,454.4,-13,""
"01-710-1070","Clinical Site 710","710","F","WHITE",85,"Xanomeline High Dose","Week 4",4,"QTCF","QTcF","msec",573.8,454.4,119.4,""
"01-710-1070","Clinical Site 710","710","F","WHITE",85,"Xanomeline High Dose","Week 6",6,"QTCF","QTcF","msec",548.3,454.4,93.9,""
"01-710-1070","Clinical Site 710","710","F","WHITE",85,"Xanomeline High Dose","Week 8",8,"QTCF","QTcF","msec",528.3,454.4,73.9,""
"01-710-1070","Clinical Site 710","710","F","WHITE",85,"Xanomeline High Dose","Week 12",12,"QTCF","QTcF","msec",594.3,454.4,139.9,""
"01-710-1070","Clinical Site 710","710","F","WHITE",85,"Xanomeline High Dose","Week 16",16,"QTCF","QTcF","msec",462.9,454.4,8.5,""
"01-710-1077","Clinical Site 710","710","F","WHITE",76,"Placebo","Baseline",0,"QTCF","QTcF","msec",594.3,594.3,0,"Y"
"01-710-1077","Clinical Site 710","710","F","WHITE",76,"Placebo","Week 2",2,"QTCF","QTcF","msec",469.8,594.3,-124.5,""
"01-710-1077","Clinical Site 710","710","F","WHITE",76,"Placebo","Week 4",4,"QTCF","QTcF","msec",537,594.3,-57.3,""
"01-710-1077","Clinical Site 710","710","F","WHITE",76,"Placebo","Week 6",6,"QTCF","QTcF","msec",510.1,594.3,-84.2,""
"01-710-1077","Clinical Site 710","710","F","WHITE",76,"Placebo","Week 8",8,"QTCF","QTcF","msec",519.4,594.3,-74.9,""
"01-710-1077","Clinical Site 710","710","F","WHITE",76,"Placebo","Week 12",12,"QTCF","QTcF","msec",545.3,594.3,-49,""
"01-710-1077","Clinical Site 710","710","F","WHITE",76,"Placebo","Week 16",16,"QTCF","QTcF","msec",515.1,594.3,-79.2,""
"01-710-1077","Clinical Site 710","710","F","WHITE",76,"Placebo","Week 20",20,"QTCF","QTcF","msec",519.4,594.3,-74.9,""
"01-710-1077","Clinical Site 710","710","F","WHITE",76,"Placebo","Week 24",24,"QTCF","QTcF","msec",497.3,594.3,-97,""
"01-710-1077","Clinical Site 710","710","F","WHITE",76,"Placebo","Week 26",26,"QTCF","QTcF","msec",454.4,594.3,-139.9,""
"01-710-1078","Clinical Site 710","710","F","WHITE",81,"Placebo","Baseline",0,"QTCF","QTcF","msec",545.3,545.3,0,"Y"
"01-710-1078","Clinical Site 710","710","F","WHITE",81,"Placebo","Week 2",2,"QTCF","QTcF","msec",510.1,545.3,-35.2,""
"01-710-1078","Clinical Site 710","710","F","WHITE",81,"Placebo","Week 4",4,"QTCF","QTcF","msec",522.8,545.3,-22.5,""
"01-710-1078","Clinical Site 710","710","F","WHITE",81,"Placebo","Week 6",6,"QTCF","QTcF","msec",510.1,545.3,-35.2,""
"01-710-1078","Clinical Site 710","710","F","WHITE",81,"Placebo","Week 8",8,"QTCF","QTcF","msec",510.1,545.3,-35.2,""
"01-710-1078","Clinical Site 710","710","F","WHITE",81,"Placebo","Week 12",12,"QTCF","QTcF","msec",515,545.3,-30.3,""
"01-710-1078","Clinical Site 710","710","F","WHITE",81,"Placebo","Week 16",16,"QTCF","QTcF","msec",573.8,545.3,28.5,""
"01-710-1078","Clinical Site 710","710","F","WHITE",81,"Placebo","Week 20",20,"QTCF","QTcF","msec",525.5,545.3,-19.8,""
"01-710-1078","Clinical Site 710","710","F","WHITE",81,"Placebo","Week 24",24,"QTCF","QTcF","msec",528.3,545.3,-17,""
"01-710-1078","Clinical Site 710","710","F","WHITE",81,"Placebo","Week 26",26,"QTCF","QTcF","msec",462.3,545.3,-83,""
"01-710-1083","Clinical Site 710","710","F","WHITE",89,"Placebo","Baseline",0,"QTCF","QTcF","msec",477.2,477.2,0,"Y"
"01-710-1137","Clinical Site 710","710","F","BLACK OR AFRICAN AMERICAN",79,"Xanomeline High Dose","Baseline",0,"QTCF","QTcF","msec",588.5,588.5,0,"Y"
"01-710-1137","Clinical Site 710","710","F","BLACK OR AFRICAN AMERICAN",79,"Xanomeline High Dose","Week 2",2,"QTCF","QTcF","msec",584.3,588.5,-4.2,""
"01-710-1137","Clinical Site 710","710","F","BLACK OR AFRICAN AMERICAN",79,"Xanomeline High Dose","Week 4",4,"QTCF","QTcF","msec",532.3,588.5,-56.2,""
"01-710-1137","Clinical Site 710","710","F","BLACK OR AFRICAN AMERICAN",79,"Xanomeline High Dose","Week 6",6,"QTCF","QTcF","msec",588,588.5,-0.5,""
"01-710-1142","Clinical Site 710","710","F","WHITE",76,"Xanomeline High Dose","Baseline",0,"QTCF","QTcF","msec",441.4,441.4,0,"Y"
"01-710-1142","Clinical Site 710","710","F","WHITE",76,"Xanomeline High Dose","Week 2",2,"QTCF","QTcF","msec",437.9,441.4,-3.5,""
"01-710-1142","Clinical Site 710","710","F","WHITE",76,"Xanomeline High Dose","Week 4",4,"QTCF","QTcF","msec",392.4,441.4,-49,""
"01-710-1154","Clinical Site 710","710","M","WHITE",84,"Xanomeline Low Dose","Baseline",0,"QTCF","QTcF","msec",504.5,504.5,0,"Y"
"01-710-1154","Clinical Site 710","710","M","WHITE",84,"Xanomeline Low Dose","Week 2",2,"QTCF","QTcF","msec",553.5,504.5,49,""
"01-710-1154","Clinical Site 710","710","M","WHITE",84,"Xanomeline Low Dose","Week 4",4,"QTCF","QTcF","msec",559,504.5,54.5,""
"01-710-1154","Clinical Site 710","710","M","WHITE",84,"Xanomeline Low Dose","Week 6",6,"QTCF","QTcF","msec",567.9,504.5,63.4,""
"01-710-1166","Clinical Site 710","710","F","WHITE",81,"Xanomeline Low Dose","Baseline",0,"QTCF","QTcF","msec",613.1,613.1,0,"Y"
"01-710-1166","Clinical Site 710","710","F","WHITE",81,"Xanomeline Low Dose","Week 2",2,"QTCF","QTcF","msec",454.4,613.1,-158.7,""
"01-710-1166","Clinical Site 710","710","F","WHITE",81,"Xanomeline Low Dose","Week 4",4,"QTCF","QTcF","msec",490.4,613.1,-122.7,""
"01-710-1166","Clinical Site 710","710","F","WHITE",81,"Xanomeline Low Dose","Week 6",6,"QTCF","QTcF","msec",478.2,613.1,-134.9,""
"01-710-1166","Clinical Site 710","710","F","WHITE",81,"Xanomeline Low Dose","Week 8",8,"QTCF","QTcF","msec",588,613.1,-25.1,""
"01-710-1166","Clinical Site 710","710","F","WHITE",81,"Xanomeline Low Dose","Week 12",12,"QTCF","QTcF","msec",540,613.1,-73.1,""
"01-710-1166","Clinical Site 710","710","F","WHITE",81,"Xanomeline Low Dose","Week 16",16,"QTCF","QTcF","msec",420,613.1,-193.1,""
"01-710-1183","Clinical Site 710","710","F","WHITE",80,"Placebo","Baseline",0,"QTCF","QTcF","msec",574.6,574.6,0,"Y"
"01-710-1183","Clinical Site 710","710","F","WHITE",80,"Placebo","Week 2",2,"QTCF","QTcF","msec",563,574.6,-11.6,""
"01-710-1183","Clinical Site 710","710","F","WHITE",80,"Placebo","Week 4",4,"QTCF","QTcF","msec",514.8,574.6,-59.8,""
"01-710-1183","Clinical Site 710","710","F","WHITE",80,"Placebo","Week 6",6,"QTCF","QTcF","msec",540,574.6,-34.6,""
"01-710-1183","Clinical Site 710","710","F","WHITE",80,"Placebo","Week 8",8,"QTCF","QTcF","msec",480.5,574.6,-94.1,""
"01-710-1183","Clinical Site 710","710","F","WHITE",80,"Placebo","Week 12",12,"QTCF","QTcF","msec",516,574.6,-58.6,""
"01-710-1183","Clinical Site 710","710","F","WHITE",80,"Placebo","Week 16",16,"QTCF","QTcF","msec",563,574.6,-11.6,""
"01-710-1183","Clinical Site 710","710","F","WHITE",80,"Placebo","Week 20",20,"QTCF","QTcF","msec",480,574.6,-94.6,""
"01-710-1183","Clinical Site 710","710","F","WHITE",80,"Placebo","Week 24",24,"QTCF","QTcF","msec",500.4,574.6,-74.2,""
"01-710-1183","Clinical Site 710","710","F","WHITE",80,"Placebo","Week 26",26,"QTCF","QTcF","msec",527.7,574.6,-46.9,""
"01-710-1187","Clinical Site 710","710","F","WHITE",78,"Xanomeline High Dose","Baseline",0,"QTCF","QTcF","msec",470.5,470.5,0,"Y"
"01-710-1187","Clinical Site 710","710","F","WHITE",78,"Xanomeline High Dose","Week 2",2,"QTCF","QTcF","msec",491.2,470.5,20.7,""
"01-710-1187","Clinical Site 710","710","F","WHITE",78,"Xanomeline High Dose","Week 4",4,"QTCF","QTcF","msec",426.8,470.5,-43.7,""
"01-710-1187","Clinical Site 710","710","F","WHITE",78,"Xanomeline High Dose","Week 6",6,"QTCF","QTcF","msec",455.3,470.5,-15.2,""
"01-710-1187","Clinical Site 710","710","F","WHITE",78,"Xanomeline High Dose","Week 8",8,"QTCF","QTcF","msec",395.3,470.5,-75.2,""
"01-710-1187","Clinical Site 710","710","F","WHITE",78,"Xanomeline High Dose","Week 12",12,"QTCF","QTcF","msec",528.3,470.5,57.8,""
"01-710-1187","Clinical Site 710","710","F","WHITE",78,"Xanomeline High Dose","Week 16",16,"QTCF","QTcF","msec",429.1,470.5,-41.4,""
"01-710-1187","Clinical Site 710","710","F","WHITE",78,"Xanomeline High Dose","Week 20",20,"QTCF","QTcF","msec",367.8,470.5,-102.7,""
"01-710-1187","Clinical Site 710","710","F","WHITE",78,"Xanomeline High Dose","Week 24",24,"QTCF","QTcF","msec",437.9,470.5,-32.6,""
"01-710-1187","Clinical Site 710","710","F","WHITE",78,"Xanomeline High Dose","Week 26",26,"QTCF","QTcF","msec",389.5,470.5,-81,""
"01-710-1235","Clinical Site 710","710","F","WHITE",56,"Xanomeline Low Dose","Baseline",0,"QTCF","QTcF","msec",613.5,613.5,0,"Y"
"01-710-1235","Clinical Site 710","710","F","WHITE",56,"Xanomeline Low Dose","Week 2",2,"QTCF","QTcF","msec",599.9,613.5,-13.6,""
"01-710-1235","Clinical Site 710","710","F","WHITE",56,"Xanomeline Low Dose","Week 4",4,"QTCF","QTcF","msec",475.5,613.5,-138,""
"01-710-1235","Clinical Site 710","710","F","WHITE",56,"Xanomeline Low Dose","Week 6",6,"QTCF","QTcF","msec",528.3,613.5,-85.2,""
"01-710-1235","Clinical Site 710","710","F","WHITE",56,"Xanomeline Low Dose","Week 8",8,"QTCF","QTcF","msec",553.5,613.5,-60,""
"01-710-1235","Clinical Site 710","710","F","WHITE",56,"Xanomeline Low Dose","Week 12",12,"QTCF","QTcF","msec",531.7,613.5,-81.8,""
"01-710-1235","Clinical Site 710","710","F","WHITE",56,"Xanomeline Low Dose","Week 16",16,"QTCF","QTcF","msec",519.4,613.5,-94.1,""
"01-710-1235","Clinical Site 710","710","F","WHITE",56,"Xanomeline Low Dose","Week 20",20,"QTCF","QTcF","msec",420,613.5,-193.5,""
"01-710-1235","Clinical Site 710","710","F","WHITE",56,"Xanomeline Low Dose","Week 24",24,"QTCF","QTcF","msec",538,613.5,-75.5,""
"01-710-1235","Clinical Site 710","710","F","WHITE",56,"Xanomeline Low Dose","Week 26",26,"QTCF","QTcF","msec",563.8,613.5,-49.7,""
"01-710-1249","Clinical Site 710","710","M","WHITE",79,"Xanomeline High Dose","Baseline",0,"QTCF","QTcF","msec",351.8,351.8,0,"Y"
"01-710-1249","Clinical Site 710","710","M","WHITE",79,"Xanomeline High Dose","Week 2",2,"QTCF","QTcF","msec",477.2,351.8,125.4,""
"01-710-1249","Clinical Site 710","710","M","WHITE",79,"Xanomeline High Dose","Week 4",4,"QTCF","QTcF","msec",446.3,351.8,94.5,""
"01-710-1249","Clinical Site 710","710","M","WHITE",79,"Xanomeline High Dose","Week 6",6,"QTCF","QTcF","msec",408,351.8,56.2,""
"01-710-1249","Clinical Site 710","710","M","WHITE",79,"Xanomeline High Dose","Week 8",8,"QTCF","QTcF","msec",392.4,351.8,40.6,""
"01-710-1249","Clinical Site 710","710","M","WHITE",79,"Xanomeline High Dose","Week 12",12,"QTCF","QTcF","msec",367.8,351.8,16,""
"01-710-1249","Clinical Site 710","710","M","WHITE",79,"Xanomeline High Dose","Week 16",16,"QTCF","QTcF","msec",367.8,351.8,16,""
"01-710-1249","Clinical Site 710","710","M","WHITE",79,"Xanomeline High Dose","Week 20",20,"QTCF","QTcF","msec",446.3,351.8,94.5,""
"01-710-1249","Clinical Site 710","710","M","WHITE",79,"Xanomeline High Dose","Week 24",24,"QTCF","QTcF","msec",375.3,351.8,23.5,""
"01-710-1249","Clinical Site 710","710","M","WHITE",79,"Xanomeline High Dose","Week 26",26,"QTCF","QTcF","msec",480,351.8,128.2,""
"01-710-1264","Clinical Site 710","710","M","WHITE",78,"Placebo","Baseline",0,"QTCF","QTcF","msec",528.3,528.3,0,"Y"
"01-710-1264","Clinical Site 710","710","M","WHITE",78,"Placebo","Week 2",2,"QTCF","QTcF","msec",420,528.3,-108.3,""
"01-710-1264","Clinical Site 710","710","M","WHITE",78,"Placebo","Week 4",4,"QTCF","QTcF","msec",493.4,528.3,-34.9,""
"01-710-1264","Clinical Site 710","710","M","WHITE",78,"Placebo","Week 6",6,"QTCF","QTcF","msec",500.4,528.3,-27.9,""
"01-710-1264","Clinical Site 710","710","M","WHITE",78,"Placebo","Week 8",8,"QTCF","QTcF","msec",425.4,528.3,-102.9,""
"01-710-1264","Clinical Site 710","710","M","WHITE",78,"Placebo","Week 12",12,"QTCF","QTcF","msec",429.1,528.3,-99.2,""
"01-710-1264","Clinical Site 710","710","M","WHITE",78,"Placebo","Week 16",16,"QTCF","QTcF","msec",510.1,528.3,-18.2,""
"01-710-1264","Clinical Site 710","710","M","WHITE",78,"Placebo","Week 20",20,"QTCF","QTcF","msec",510.1,528.3,-18.2,""
"01-710-1270","Clinical Site 710","710","F","WHITE",83,"Xanomeline Low Dose","Baseline",0,"QTCF","QTcF","msec",535.6,535.6,0,"Y"
"01-710-1270","Clinical Site 710","710","F","WHITE",83,"Xanomeline Low Dose","Week 2",2,"QTCF","QTcF","msec",546.9,535.6,11.3,""
"01-710-1271","Clinical Site 710","710","F","WHITE",86,"Placebo","Baseline",0,"QTCF","QTcF","msec",528.3,528.3,0,"Y"
"01-710-1271","Clinical Site 710","710","F","WHITE",86,"Placebo","Week 2",2,"QTCF","QTcF","msec",506.4,528.3,-21.9,""
"01-710-1271","Clinical Site 710","710","F","WHITE",86,"Placebo","Week 4",4,"QTCF","QTcF","msec",537,528.3,8.7,""
"01-710-1271","Clinical Site 710","710","F","WHITE",86,"Placebo","Week 6",6,"QTCF","QTcF","msec",532.3,528.3,4,""
"01-710-1278","Clinical Site 710","710","M","WHITE",81,"Xanomeline High Dose","Baseline",0,"QTCF","QTcF","msec",453.7,453.7,0,"Y"
"01-710-1278","Clinical Site 710","710","M","WHITE",81,"Xanomeline High Dose","Week 2",2,"QTCF","QTcF","msec",467.4,453.7,13.7,""
"01-710-1278","Clinical Site 710","710","M","WHITE",81,"Xanomeline High Dose","Week 4",4,"QTCF","QTcF","msec",449.1,453.7,-4.6,""
"01-710-1278","Clinical Site 710","710","M","WHITE",81,"Xanomeline High Dose","Week 6",6,"QTCF","QTcF","msec",539.5,453.7,85.8,""
"01-710-1278","Clinical Site 710","710","M","WHITE",81,"Xanomeline High Dose","Week 8",8,"QTCF","QTcF","msec",535.6,453.7,81.9,""
"01-710-1278","Clinical Site 710","710","M","WHITE",81,"Xanomeline High Dose","Week 12",12,"QTCF","QTcF","msec",429.1,453.7,-24.6,""
"01-710-1300","Clinical Site 710","710","F","WHITE",78,"Xanomeline Low Dose","Baseline",0,"QTCF","QTcF","msec",462.9,462.9,0,"Y"
"01-710-1300","Clinical Site 710","710","F","WHITE",78,"Xanomeline Low Dose","Week 2",2,"QTCF","QTcF","msec",437.9,462.9,-25,""
"01-710-1300","Clinical Site 710","710","F","WHITE",78,"Xanomeline Low Dose","Week 4",4,"QTCF","QTcF","msec",559,462.9,96.1,""
"01-710-1300","Clinical Site 710","710","F","WHITE",78,"Xanomeline Low Dose","Week 6",6,"QTCF","QTcF","msec",484.6,462.9,21.7,""
"01-710-1300","Clinical Site 710","710","F","WHITE",78,"Xanomeline Low Dose","Week 8",8,"QTCF","QTcF","msec",594.3,462.9,131.4,""
"01-710-1300","Clinical Site 710","710","F","WHITE",78,"Xanomeline Low Dose","Week 12",12,"QTCF","QTcF","msec",519.4,462.9,56.5,""
"01-710-1314","Clinical Site 710","710","F","WHITE",78,"Placebo","Baseline",0,"QTCF","QTcF","msec",351.8,351.8,0,"Y"
"01-710-1314","Clinical Site 710","710","F","WHITE",78,"Placebo","Week 2",2,"QTCF","QTcF","msec",325.3,351.8,-26.5,""
"01-710-1314","Clinical Site 710","710","F","WHITE",78,"Placebo","Week 4",4,"QTCF","QTcF","msec",420.8,351.8,69,""
"01-710-1315","Clinical Site 710","710","F","WHITE",83,"Placebo","Baseline",0,"QTCF","QTcF","msec",687.7,687.7,0,"Y"
"01-710-1315","Clinical Site 710","710","F","WHITE",83,"Placebo","Week 2",2,"QTCF","QTcF","msec",654.4,687.7,-33.3,""
"01-710-1315","Clinical Site 710","710","F","WHITE",83,"Placebo","Week 4",4,"QTCF","QTcF","msec",613.5,687.7,-74.2,""
"01-710-1315","Clinical Site 710","710","F","WHITE",83,"Placebo","Week 6",6,"QTCF","QTcF","msec",697.2,687.7,9.5,""
"01-710-1315","Clinical Site 710","710","F","WHITE",83,"Placebo","Week 8",8,"QTCF","QTcF","msec",657.8,687.7,-29.9,""
"01-710-1315","Clinical Site 710","710","F","WHITE",83,"Placebo","Week 12",12,"QTCF","QTcF","msec",687.7,687.7,0,""
"01-710-1315","Clinical Site 710","710","F","WHITE",83,"Placebo","Week 16",16,"QTCF","QTcF","msec",657.8,687.7,-29.9,""
"01-710-1315","Clinical Site 710","710","F","WHITE",83,"Placebo","Week 20",20,"QTCF","QTcF","msec",691.9,687.7,4.2,""
"01-710-1354","Clinical Site 710","710","M","WHITE",73,"Xanomeline High Dose","Baseline",0,"QTCF","QTcF","msec",561.1,561.1,0,"Y"
"01-710-1354","Clinical Site 710","710","M","WHITE",73,"Xanomeline High Dose","Week 2",2,"QTCF","QTcF","msec",584.3,561.1,23.2,""
"01-710-1354","Clinical Site 710","710","M","WHITE",73,"Xanomeline High Dose","Week 4",4,"QTCF","QTcF","msec",538,561.1,-23.1,""
"01-710-1354","Clinical Site 710","710","M","WHITE",73,"Xanomeline High Dose","Week 6",6,"QTCF","QTcF","msec",584.3,561.1,23.2,""
"01-710-1354","Clinical Site 710","710","M","WHITE",73,"Xanomeline High Dose","Week 8",8,"QTCF","QTcF","msec",594.3,561.1,33.2,""
"01-710-1354","Clinical Site 710","710","M","WHITE",73,"Xanomeline High Dose","Week 12",12,"QTCF","QTcF","msec",429.1,561.1,-132,""
"01-710-1354","Clinical Site 710","710","M","WHITE",73,"Xanomeline High Dose","Week 16",16,"QTCF","QTcF","msec",584.3,561.1,23.2,""
"01-710-1354","Clinical Site 710","710","M","WHITE",73,"Xanomeline High Dose","Week 20",20,"QTCF","QTcF","msec",564,561.1,2.9,""
"01-710-1354","Clinical Site 710","710","M","WHITE",73,"Xanomeline High Dose","Week 24",24,"QTCF","QTcF","msec",519.4,561.1,-41.7,""
"01-710-1354","Clinical Site 710","710","M","WHITE",73,"Xanomeline High Dose","Week 26",26,"QTCF","QTcF","msec",510.1,561.1,-51,""
"01-710-1358","Clinical Site 710","710","M","WHITE",82,"Xanomeline Low Dose","Baseline",0,"QTCF","QTcF","msec",490.4,490.4,0,"Y"
"01-710-1358","Clinical Site 710","710","M","WHITE",82,"Xanomeline Low Dose","Week 2",2,"QTCF","QTcF","msec",462.3,490.4,-28.1,""
"01-710-1358","Clinical Site 710","710","M","WHITE",82,"Xanomeline Low Dose","Week 4",4,"QTCF","QTcF","msec",475.5,490.4,-14.9,""
"01-710-1358","Clinical Site 710","710","M","WHITE",82,"Xanomeline Low Dose","Week 6",6,"QTCF","QTcF","msec",500.4,490.4,10,""
"01-710-1358","Clinical Site 710","710","M","WHITE",82,"Xanomeline Low Dose","Week 8",8,"QTCF","QTcF","msec",500.4,490.4,10,""
"01-710-1358","Clinical Site 710","710","M","WHITE",82,"Xanomeline Low Dose","Week 12",12,"QTCF","QTcF","msec",510.1,490.4,19.7,""
"01-710-1358","Clinical Site 710","710","M","WHITE",82,"Xanomeline Low Dose","Week 16",16,"QTCF","QTcF","msec",490.4,490.4,0,""
"01-710-1358","Clinical Site 710","710","M","WHITE",82,"Xanomeline Low Dose","Week 20",20,"QTCF","QTcF","msec",420,490.4,-70.4,""
"01-710-1368","Clinical Site 710","710","F","WHITE",88,"Placebo","Baseline",0,"QTCF","QTcF","msec",563.8,563.8,0,"Y"
"01-710-1368","Clinical Site 710","710","F","WHITE",88,"Placebo","Week 2",2,"QTCF","QTcF","msec",462.3,563.8,-101.5,""
"01-710-1368","Clinical Site 710","710","F","WHITE",88,"Placebo","Week 4",4,"QTCF","QTcF","msec",402.5,563.8,-161.3,""
"01-710-1368","Clinical Site 710","710","F","WHITE",88,"Placebo","Week 6",6,"QTCF","QTcF","msec",477.2,563.8,-86.6,""
"01-710-1368","Clinical Site 710","710","F","WHITE",88,"Placebo","Week 8",8,"QTCF","QTcF","msec",488.7,563.8,-75.1,""
"01-710-1368","Clinical Site 710","710","F","WHITE",88,"Placebo","Week 12",12,"QTCF","QTcF","msec",396.2,563.8,-167.6,""
"01-710-1368","Clinical Site 710","710","F","WHITE",88,"Placebo","Week 16",16,"QTCF","QTcF","msec",528.3,563.8,-35.5,""
"01-710-1368","Clinical Site 710","710","F","WHITE",88,"Placebo","Week 20",20,"QTCF","QTcF","msec",462.3,563.8,-101.5,""
"01-710-1368","Clinical Site 710","710","F","WHITE",88,"Placebo","Week 24",24,"QTCF","QTcF","msec",469.8,563.8,-94,""
"01-710-1368","Clinical Site 710","710","F","WHITE",88,"Placebo","Week 26",26,"QTCF","QTcF","msec",537,563.8,-26.8,""
"01-710-1385","Clinical Site 710","710","M","WHITE",77,"Xanomeline Low Dose","Baseline",0,"QTCF","QTcF","msec",649.2,649.2,0,"Y"
"01-710-1385","Clinical Site 710","710","M","WHITE",77,"Xanomeline Low Dose","Week 2",2,"QTCF","QTcF","msec",672.7,649.2,23.5,""
"01-710-1385","Clinical Site 710","710","M","WHITE",77,"Xanomeline Low Dose","Week 4",4,"QTCF","QTcF","msec",613.5,649.2,-35.7,""
"01-710-1385","Clinical Site 710","710","M","WHITE",77,"Xanomeline Low Dose","Week 6",6,"QTCF","QTcF","msec",636.2,649.2,-13,""
"01-710-1385","Clinical Site 710","710","M","WHITE",77,"Xanomeline Low Dose","Week 8",8,"QTCF","QTcF","msec",550.4,649.2,-98.8,""
"01-710-1385","Clinical Site 710","710","M","WHITE",77,"Xanomeline Low Dose","Week 12",12,"QTCF","QTcF","msec",573.8,649.2,-75.4,""
"01-710-1385","Clinical Site 710","710","M","WHITE",77,"Xanomeline Low Dose","Week 16",16,"QTCF","QTcF","msec",480,649.2,-169.2,""
"01-710-1408","Clinical Site 710","710","M","WHITE",80,"Xanomeline High Dose","Baseline",0,"QTCF","QTcF","msec",647.2,647.2,0,"Y"
"01-710-1408","Clinical Site 710","710","M","WHITE",80,"Xanomeline High Dose","Week 2",2,"QTCF","QTcF","msec",386.1,647.2,-261.1,""
"01-710-1408","Clinical Site 710","710","M","WHITE",80,"Xanomeline High Dose","Week 4",4,"QTCF","QTcF","msec",456.6,647.2,-190.6,""
"01-710-1408","Clinical Site 710","710","M","WHITE",80,"Xanomeline High Dose","Week 6",6,"QTCF","QTcF","msec",541.5,647.2,-105.7,""
"01-710-1408","Clinical Site 710","710","M","WHITE",80,"Xanomeline High Dose","Week 8",8,"QTCF","QTcF","msec",594.3,647.2,-52.9,""
"01-710-1408","Clinical Site 710","710","M","WHITE",80,"Xanomeline High Dose","Week 12",12,"QTCF","QTcF","msec",567.9,647.2,-79.3,""
"01-710-1408","Clinical Site 710","710","M","WHITE",80,"Xanomeline High Dose","Week 16",16,"QTCF","QTcF","msec",528.3,647.2,-118.9,""
"01-710-1408","Clinical Site 710","710","M","WHITE",80,"Xanomeline High Dose","Week 20",20,"QTCF","QTcF","msec",584.3,647.2,-62.9,""
"01-710-1408","Clinical Site 710","710","M","WHITE",80,"Xanomeline High Dose","Week 24",24,"QTCF","QTcF","msec",537,647.2,-110.2,""
"01-710-1408","Clinical Site 710","710","M","WHITE",80,"Xanomeline High Dose","Week 26",26,"QTCF","QTcF","msec",553.5,647.2,-93.7,""
"01-711-1012","Clinical Site 711","711","F","WHITE",67,"Xanomeline High Dose","Baseline",0,"QTCF","QTcF","msec",528.3,528.3,0,"Y"
"01-711-1012","Clinical Site 711","711","F","WHITE",67,"Xanomeline High Dose","Week 2",2,"QTCF","QTcF","msec",537,528.3,8.7,""
"01-711-1012","Clinical Site 711","711","F","WHITE",67,"Xanomeline High Dose","Week 4",4,"QTCF","QTcF","msec",429.1,528.3,-99.2,""
"01-711-1036","Clinical Site 711","711","M","BLACK OR AFRICAN AMERICAN",70,"Placebo","Baseline",0,"QTCF","QTcF","msec",432,432,0,"Y"
"01-711-1036","Clinical Site 711","711","M","BLACK OR AFRICAN AMERICAN",70,"Placebo","Week 2",2,"QTCF","QTcF","msec",400.4,432,-31.6,""
"01-711-1036","Clinical Site 711","711","M","BLACK OR AFRICAN AMERICAN",70,"Placebo","Week 4",4,"QTCF","QTcF","msec",404.6,432,-27.4,""
"01-711-1036","Clinical Site 711","711","M","BLACK OR AFRICAN AMERICAN",70,"Placebo","Week 6",6,"QTCF","QTcF","msec",484.6,432,52.6,""
"01-711-1036","Clinical Site 711","711","M","BLACK OR AFRICAN AMERICAN",70,"Placebo","Week 8",8,"QTCF","QTcF","msec",462.9,432,30.9,""
"01-711-1036","Clinical Site 711","711","M","BLACK OR AFRICAN AMERICAN",70,"Placebo","Week 12",12,"QTCF","QTcF","msec",454.4,432,22.4,""
"01-711-1036","Clinical Site 711","711","M","BLACK OR AFRICAN AMERICAN",70,"Placebo","Week 16",16,"QTCF","QTcF","msec",404.6,432,-27.4,""
"01-711-1036","Clinical Site 711","711","M","BLACK OR AFRICAN AMERICAN",70,"Placebo","Week 20",20,"QTCF","QTcF","msec",475.4,432,43.4,""
"01-711-1036","Clinical Site 711","711","M","BLACK OR AFRICAN AMERICAN",70,"Placebo","Week 24",24,"QTCF","QTcF","msec",465.9,432,33.9,""
"01-711-1036","Clinical Site 711","711","M","BLACK OR AFRICAN AMERICAN",70,"Placebo","Week 26",26,"QTCF","QTcF","msec",475.4,432,43.4,""
"01-711-1143","Clinical Site 711","711","F","WHITE",76,"Xanomeline Low Dose","Baseline",0,"QTCF","QTcF","msec",484.6,484.6,0,"Y"
"01-711-1143","Clinical Site 711","711","F","WHITE",76,"Xanomeline Low Dose","Week 2",2,"QTCF","QTcF","msec",420,484.6,-64.6,""
"01-711-1143","Clinical Site 711","711","F","WHITE",76,"Xanomeline Low Dose","Week 4",4,"QTCF","QTcF","msec",480,484.6,-4.6,""
"01-711-1143","Clinical Site 711","711","F","WHITE",76,"Xanomeline Low Dose","Week 6",6,"QTCF","QTcF","msec",478.2,484.6,-6.4,""
"01-711-1143","Clinical Site 711","711","F","WHITE",76,"Xanomeline Low Dose","Week 8",8,"QTCF","QTcF","msec",441.4,484.6,-43.2,""
"01-711-1143","Clinical Site 711","711","F","WHITE",76,"Xanomeline Low Dose","Week 12",12,"QTCF","QTcF","msec",420,484.6,-64.6,""
"01-711-1433","Clinical Site 711","711","F","WHITE",84,"Xanomeline Low Dose","Baseline",0,"QTCF","QTcF","msec",608.8,608.8,0,"Y"
"01-711-1433","Clinical Site 711","711","F","WHITE",84,"Xanomeline Low Dose","Week 2",2,"QTCF","QTcF","msec",599.3,608.8,-9.5,""
"01-713-1043","Clinical Site 713","713","F","WHITE",78,"Xanomeline Low Dose","Baseline",0,"QTCF","QTcF","msec",396.2,396.2,0,"Y"
"01-713-1043","Clinical Site 713","713","F","WHITE",78,"Xanomeline Low Dose","Week 2",2,"QTCF","QTcF","msec",409,396.2,12.8,""
"01-713-1043","Clinical Site 713","713","F","WHITE",78,"Xanomeline Low Dose","Week 4",4,"QTCF","QTcF","msec",399.5,396.2,3.3,""
"01-713-1043","Clinical Site 713","713","F","WHITE",78,"Xanomeline Low Dose","Week 6",6,"QTCF","QTcF","msec",324.6,396.2,-71.6,""
"01-713-1043","Clinical Site 713","713","F","WHITE",78,"Xanomeline Low Dose","Week 8",8,"QTCF","QTcF","msec",454.4,396.2,58.2,""
"01-713-1043","Clinical Site 713","713","F","WHITE",78,"Xanomeline Low Dose","Week 12",12,"QTCF","QTcF","msec",399.5,396.2,3.3,""
"01-713-1043","Clinical Site 713","713","F","WHITE",78,"Xanomeline Low Dose","Week 16",16,"QTCF","QTcF","msec",375.3,396.2,-20.9,""
"01-713-1043","Clinical Site 713","713","F","WHITE",78,"Xanomeline Low Dose","Week 20",20,"QTCF","QTcF","msec",452.7,396.2,56.5,""
"01-713-1043","Clinical Site 713","713","F","WHITE",78,"Xanomeline Low Dose","Week 24",24,"QTCF","QTcF","msec",462.3,396.2,66.1,""
"01-713-1043","Clinical Site 713","713","F","WHITE",78,"Xanomeline Low Dose","Week 26",26,"QTCF","QTcF","msec",375.3,396.2,-20.9,""
"01-713-1073","Clinical Site 713","713","F","BLACK OR AFRICAN AMERICAN",74,"Xanomeline Low Dose","Baseline",0,"QTCF","QTcF","msec",606.5,606.5,0,"Y"
"01-713-1073","Clinical Site 713","713","F","BLACK OR AFRICAN AMERICAN",74,"Xanomeline Low Dose","Week 2",2,"QTCF","QTcF","msec",563,606.5,-43.5,""
"01-713-1073","Clinical Site 713","713","F","BLACK OR AFRICAN AMERICAN",74,"Xanomeline Low Dose","Week 4",4,"QTCF","QTcF","msec",613,606.5,6.5,""
"01-713-1073","Clinical Site 713","713","F","BLACK OR AFRICAN AMERICAN",74,"Xanomeline Low Dose","Week 6",6,"QTCF","QTcF","msec",617.5,606.5,11,""
"01-713-1073","Clinical Site 713","713","F","BLACK OR AFRICAN AMERICAN",74,"Xanomeline Low Dose","Week 8",8,"QTCF","QTcF","msec",599.3,606.5,-7.2,""
"01-713-1073","Clinical Site 713","713","F","BLACK OR AFRICAN AMERICAN",74,"Xanomeline Low Dose","Week 12",12,"QTCF","QTcF","msec",589.4,606.5,-17.1,""
"01-713-1073","Clinical Site 713","713","F","BLACK OR AFRICAN AMERICAN",74,"Xanomeline Low Dose","Week 16",16,"QTCF","QTcF","msec",542,606.5,-64.5,""
"01-713-1073","Clinical Site 713","713","F","BLACK OR AFRICAN AMERICAN",74,"Xanomeline Low Dose","Week 20",20,"QTCF","QTcF","msec",439.8,606.5,-166.7,""
"01-713-1073","Clinical Site 713","713","F","BLACK OR AFRICAN AMERICAN",74,"Xanomeline Low Dose","Week 24",24,"QTCF","QTcF","msec",594.3,606.5,-12.2,""
"01-713-1073","Clinical Site 713","713","F","BLACK OR AFRICAN AMERICAN",74,"Xanomeline Low Dose","Week 26",26,"QTCF","QTcF","msec",554.6,606.5,-51.9,""
"01-713-1106","Clinical Site 713","713","M","WHITE",74,"Xanomeline High Dose","Baseline",0,"QTCF","QTcF","msec",399.5,399.5,0,"Y"
"01-713-1106","Clinical Site 713","713","M","WHITE",74,"Xanomeline High Dose","Week 2",2,"QTCF","QTcF","msec",452.4,399.5,52.9,""
"01-713-1106","Clinical Site 713","713","M","WHITE",74,"Xanomeline High Dose","Week 4",4,"QTCF","QTcF","msec",437.9,399.5,38.4,""
"01-713-1106","Clinical Site 713","713","M","WHITE",74,"Xanomeline High Dose","Week 6",6,"QTCF","QTcF","msec",437.9,399.5,38.4,""
"01-713-1106","Clinical Site 713","713","M","WHITE",74,"Xanomeline High Dose","Week 8",8,"QTCF","QTcF","msec",364,399.5,-35.5,""
"01-713-1106","Clinical Site 713","713","M","WHITE",74,"Xanomeline High Dose","Week 12",12,"QTCF","QTcF","msec",462.3,399.5,62.8,""
"01-713-1106","Clinical Site 713","713","M","WHITE",74,"Xanomeline High Dose","Week 16",16,"QTCF","QTcF","msec",318.8,399.5,-80.7,""
"01-713-1106","Clinical Site 713","713","M","WHITE",74,"Xanomeline High Dose","Week 20",20,"QTCF","QTcF","msec",396.2,399.5,-3.3,""
"01-713-1106","Clinical Site 713","713","M","WHITE",74,"Xanomeline High Dose","Week 24",24,"QTCF","QTcF","msec",389.5,399.5,-10,""
"01-713-1106","Clinical Site 713","713","M","WHITE",74,"Xanomeline High Dose","Week 26",26,"QTCF","QTcF","msec",300,399.5,-99.5,""
"01-713-1141","Clinical Site 713","713","M","WHITE",79,"Xanomeline High Dose","Baseline",0,"QTCF","QTcF","msec",466.1,466.1,0,"Y"
"01-713-1141","Clinical Site 713","713","M","WHITE",79,"Xanomeline High Dose","Week 2",2,"QTCF","QTcF","msec",429.1,466.1,-37,""
"01-713-1141","Clinical Site 713","713","M","WHITE",79,"Xanomeline High Dose","Week 4",4,"QTCF","QTcF","msec",436.3,466.1,-29.8,""
"01-713-1179","Clinical Site 713","713","F","WHITE",64,"Placebo","Baseline",0,"QTCF","QTcF","msec",410.5,410.5,0,"Y"
"01-713-1179","Clinical Site 713","713","F","WHITE",64,"Placebo","Week 2",2,"QTCF","QTcF","msec",420,410.5,9.5,""
"01-713-1179","Clinical Site 713","713","F","WHITE",64,"Placebo","Week 4",4,"QTCF","QTcF","msec",400.4,410.5,-10.1,""
"01-713-1179","Clinical Site 713","713","F","WHITE",64,"Placebo","Week 6",6,"QTCF","QTcF","msec",446.3,410.5,35.8,""
"01-713-1179","Clinical Site 713","713","F","WHITE",64,"Placebo","Week 8",8,"QTCF","QTcF","msec",437.9,410.5,27.4,""
"01-713-1179","Clinical Site 713","713","F","WHITE",64,"Placebo","Week 12",12,"QTCF","QTcF","msec",437.9,410.5,27.4,""
"01-713-1179","Clinical Site 713","713","F","WHITE",64,"Placebo","Week 16",16,"QTCF","QTcF","msec",527.7,410.5,117.2,""
"01-713-1179","Clinical Site 713","713","F","WHITE",64,"Placebo","Week 20",20,"QTCF","QTcF","msec",462.3,410.5,51.8,""
"01-713-1179","Clinical Site 713","713","F","WHITE",64,"Placebo","Week 24",24,"QTCF","QTcF","msec",351.8,410.5,-58.7,""
"01-713-1179","Clinical Site 713","713","F","WHITE",64,"Placebo","Week 26",26,"QTCF","QTcF","msec",375.3,410.5,-35.2,""
"01-713-1209","Clinical Site 713","713","F","WHITE",77,"Xanomeline High Dose","Baseline",0,"QTCF","QTcF","msec",454.4,454.4,0,"Y"
"01-713-1209","Clinical Site 713","713","F","WHITE",77,"Xanomeline High Dose","Week 2",2,"QTCF","QTcF","msec",396.2,454.4,-58.2,""
"01-713-1209","Clinical Site 713","713","F","WHITE",77,"Xanomeline High Dose","Week 4",4,"QTCF","QTcF","msec",477.2,454.4,22.8,""
"01-713-1209","Clinical Site 713","713","F","WHITE",77,"Xanomeline High Dose","Week 6",6,"QTCF","QTcF","msec",396.2,454.4,-58.2,""
"01-713-1209","Clinical Site 713","713","F","WHITE",77,"Xanomeline High Dose","Week 8",8,"QTCF","QTcF","msec",519.4,454.4,65,""
"01-713-1209","Clinical Site 713","713","F","WHITE",77,"Xanomeline High Dose","Week 12",12,"QTCF","QTcF","msec",389.5,454.4,-64.9,""
"01-713-1209","Clinical Site 713","713","F","WHITE",77,"Xanomeline High Dose","Week 16",16,"QTCF","QTcF","msec",500.4,454.4,46,""
"01-713-1209","Clinical Site 713","713","F","WHITE",77,"Xanomeline High Dose","Week 20",20,"QTCF","QTcF","msec",462.3,454.4,7.9,""
"01-713-1209","Clinical Site 713","713","F","WHITE",77,"Xanomeline High Dose","Week 24",24,"QTCF","QTcF","msec",466.1,454.4,11.7,""
"01-713-1209","Clinical Site 713","713","F","WHITE",77,"Xanomeline High Dose","Week 26",26,"QTCF","QTcF","msec",409,454.4,-45.4,""
"01-713-1256","Clinical Site 713","713","M","WHITE",71,"Placebo","Baseline",0,"QTCF","QTcF","msec",399.5,399.5,0,"Y"
"01-713-1256","Clinical Site 713","713","M","WHITE",71,"Placebo","Week 2",2,"QTCF","QTcF","msec",399.5,399.5,0,""
"01-713-1256","Clinical Site 713","713","M","WHITE",71,"Placebo","Week 4",4,"QTCF","QTcF","msec",364,399.5,-35.5,""
"01-713-1256","Clinical Site 713","713","M","WHITE",71,"Placebo","Week 6",6,"QTCF","QTcF","msec",375.3,399.5,-24.2,""
"01-713-1256","Clinical Site 713","713","M","WHITE",71,"Placebo","Week 8",8,"QTCF","QTcF","msec",382.6,399.5,-16.9,""
"01-713-1256","Clinical Site 713","713","M","WHITE",71,"Placebo","Week 12",12,"QTCF","QTcF","msec",416.6,399.5,17.1,""
"01-713-1256","Clinical Site 713","713","M","WHITE",71,"Placebo","Week 16",16,"QTCF","QTcF","msec",332.9,399.5,-66.6,""
"01-713-1256","Clinical Site 713","713","M","WHITE",71,"Placebo","Week 20",20,"QTCF","QTcF","msec",396.2,399.5,-3.3,""
"01-713-1256","Clinical Site 713","713","M","WHITE",71,"Placebo","Week 24",24,"QTCF","QTcF","msec",389.5,399.5,-10,""
"01-713-1256","Clinical Site 713","713","M","WHITE",71,"Placebo","Week 26",26,"QTCF","QTcF","msec",418.1,399.5,18.6,""
"01-713-1269","Clinical Site 713","713","M","WHITE",73,"Placebo","Baseline",0,"QTCF","QTcF","msec",382.6,382.6,0,"Y"
"01-713-1269","Clinical Site 713","713","M","WHITE",73,"Placebo","Week 2",2,"QTCF","QTcF","msec",568.5,382.6,185.9,""
"01-713-1269","Clinical Site 713","713","M","WHITE",73,"Placebo","Week 4",4,"QTCF","QTcF","msec",571.2,382.6,188.6,""
"01-713-1269","Clinical Site 713","713","M","WHITE",73,"Placebo","Week 6",6,"QTCF","QTcF","msec",462.3,382.6,79.7,""
"01-713-1269","Clinical Site 713","713","M","WHITE",73,"Placebo","Week 8",8,"QTCF","QTcF","msec",442.1,382.6,59.5,""
"01-713-1269","Clinical Site 713","713","M","WHITE",73,"Placebo","Week 12",12,"QTCF","QTcF","msec",528.3,382.6,145.7,""
"01-713-1269","Clinical Site 713","713","M","WHITE",73,"Placebo","Week 16",16,"QTCF","QTcF","msec",442.1,382.6,59.5,""
"01-713-1269","Clinical Site 713","713","M","WHITE",73,"Placebo","Week 20",20,"QTCF","QTcF","msec",437.9,382.6,55.3,""
"01-713-1269","Clinical Site 713","713","M","WHITE",73,"Placebo","Week 24",24,"QTCF","QTcF","msec",507.7,382.6,125.1,""
"01-713-1269","Clinical Site 713","713","M","WHITE",73,"Placebo","Week 26",26,"QTCF","QTcF","msec",462.3,382.6,79.7,""
"01-713-1448","Clinical Site 713","713","F","WHITE",71,"Xanomeline Low Dose","Baseline",0,"QTCF","QTcF","msec",437.9,437.9,0,"Y"
"01-713-1448","Clinical Site 713","713","F","WHITE",71,"Xanomeline Low Dose","Week 2",2,"QTCF","QTcF","msec",458.4,437.9,20.5,""
"01-713-1448","Clinical Site 713","713","F","WHITE",71,"Xanomeline Low Dose","Week 4",4,"QTCF","QTcF","msec",477.2,437.9,39.3,""
"01-713-1448","Clinical Site 713","713","F","WHITE",71,"Xanomeline Low Dose","Week 6",6,"QTCF","QTcF","msec",534.8,437.9,96.9,""
"01-713-1448","Clinical Site 713","713","F","WHITE",71,"Xanomeline Low Dose","Week 8",8,"QTCF","QTcF","msec",613.5,437.9,175.6,""
"01-713-1448","Clinical Site 713","713","F","WHITE",71,"Xanomeline Low Dose","Week 12",12,"QTCF","QTcF","msec",618.1,437.9,180.2,""
"01-713-1448","Clinical Site 713","713","F","WHITE",71,"Xanomeline Low Dose","Week 16",16,"QTCF","QTcF","msec",462.3,437.9,24.4,""
"01-714-1035","Clinical Site 714","714","F","WHITE",88,"Placebo","Baseline",0,"QTCF","QTcF","msec",459.1,459.1,0,"Y"
"01-714-1035","Clinical Site 714","714","F","WHITE",88,"Placebo","Week 2",2,"QTCF","QTcF","msec",528.3,459.1,69.2,""
"01-714-1035","Clinical Site 714","714","F","WHITE",88,"Placebo","Week 4",4,"QTCF","QTcF","msec",510.8,459.1,51.7,""
"01-714-1035","Clinical Site 714","714","F","WHITE",88,"Placebo","Week 6",6,"QTCF","QTcF","msec",458.3,459.1,-0.8,""
"01-714-1035","Clinical Site 714","714","F","WHITE",88,"Placebo","Week 8",8,"QTCF","QTcF","msec",454.4,459.1,-4.7,""
"01-714-1035","Clinical Site 714","714","F","WHITE",88,"Placebo","Week 12",12,"QTCF","QTcF","msec",480,459.1,20.9,""
"01-714-1035","Clinical Site 714","714","F","WHITE",88,"Placebo","Week 16",16,"QTCF","QTcF","msec",532.7,459.1,73.6,""
"01-714-1035","Clinical Site 714","714","F","WHITE",88,"Placebo","Week 20",20,"QTCF","QTcF","msec",453.7,459.1,-5.4,""
"01-714-1035","Clinical Site 714","714","F","WHITE",88,"Placebo","Week 24",24,"QTCF","QTcF","msec",450.4,459.1,-8.7,""
"01-714-1035","Clinical Site 714","714","F","WHITE",88,"Placebo","Week 26",26,"QTCF","QTcF","msec",453.7,459.1,-5.4,""
"01-714-1068","Clinical Site 714","714","F","WHITE",79,"Xanomeline Low Dose","Baseline",0,"QTCF","QTcF","msec",528.3,528.3,0,"Y"
"01-714-1068","Clinical Site 714","714","F","WHITE",79,"Xanomeline Low Dose","Week 2",2,"QTCF","QTcF","msec",462.3,528.3,-66,""
"01-714-1068","Clinical Site 714","714","F","WHITE",79,"Xanomeline Low Dose","Week 4",4,"QTCF","QTcF","msec",515.1,528.3,-13.2,""
"01-714-1068","Clinical Site 714","714","F","WHITE",79,"Xanomeline Low Dose","Week 6",6,"QTCF","QTcF","msec",458.4,528.3,-69.9,""
"01-714-1068","Clinical Site 714","714","F","WHITE",79,"Xanomeline Low Dose","Week 8",8,"QTCF","QTcF","msec",506.4,528.3,-21.9,""
"01-714-1068","Clinical Site 714","714","F","WHITE",79,"Xanomeline Low Dose","Week 12",12,"QTCF","QTcF","msec",433.6,528.3,-94.7,""
"01-714-1195","Clinical Site 714","714","M","WHITE",75,"Xanomeline Low Dose","Baseline",0,"QTCF","QTcF","msec",484.6,484.6,0,"Y"
"01-714-1195","Clinical Site 714","714","M","WHITE",75,"Xanomeline Low Dose","Week 2",2,"QTCF","QTcF","msec",501.9,484.6,17.3,""
"01-714-1195","Clinical Site 714","714","M","WHITE",75,"Xanomeline Low Dose","Week 4",4,"QTCF","QTcF","msec",442.1,484.6,-42.5,""
"01-714-1195","Clinical Site 714","714","M","WHITE",75,"Xanomeline Low Dose","Week 6",6,"QTCF","QTcF","msec",535.7,484.6,51.1,""
"01-714-1195","Clinical Site 714","714","M","WHITE",75,"Xanomeline Low Dose","Week 8",8,"QTCF","QTcF","msec",456.4,484.6,-28.2,""
"01-714-1195","Clinical Site 714","714","M","WHITE",75,"Xanomeline Low Dose","Week 12",12,"QTCF","QTcF","msec",558.3,484.6,73.7,""
"01-714-1195","Clinical Site 714","714","M","WHITE",75,"Xanomeline Low Dose","Week 16",16,"QTCF","QTcF","msec",530.6,484.6,46,""
"01-714-1195","Clinical Site 714","714","M","WHITE",75,"Xanomeline Low Dose","Week 20",20,"QTCF","QTcF","msec",446.3,484.6,-38.3,""
"01-714-1195","Clinical Site 714","714","M","WHITE",75,"Xanomeline Low Dose","Week 24",24,"QTCF","QTcF","msec",483.1,484.6,-1.5,""
"01-714-1195","Clinical Site 714","714","M","WHITE",75,"Xanomeline Low Dose","Week 26",26,"QTCF","QTcF","msec",475.4,484.6,-9.2,""
"01-714-1288","Clinical Site 714","714","M","BLACK OR AFRICAN AMERICAN",77,"Xanomeline High Dose","Baseline",0,"QTCF","QTcF","msec",585.9,585.9,0,"Y"
"01-714-1288","Clinical Site 714","714","M","BLACK OR AFRICAN AMERICAN",77,"Xanomeline High Dose","Week 2",2,"QTCF","QTcF","msec",459.1,585.9,-126.8,""
"01-714-1288","Clinical Site 714","714","M","BLACK OR AFRICAN AMERICAN",77,"Xanomeline High Dose","Week 4",4,"QTCF","QTcF","msec",469.8,585.9,-116.1,""
"01-714-1288","Clinical Site 714","714","M","BLACK OR AFRICAN AMERICAN",77,"Xanomeline High Dose","Week 6",6,"QTCF","QTcF","msec",478.2,585.9,-107.7,""
"01-714-1288","Clinical Site 714","714","M","BLACK OR AFRICAN AMERICAN",77,"Xanomeline High Dose","Week 8",8,"QTCF","QTcF","msec",429.5,585.9,-156.4,""
"01-714-1288","Clinical Site 714","714","M","BLACK OR AFRICAN AMERICAN",77,"Xanomeline High Dose","Week 12",12,"QTCF","QTcF","msec",461,585.9,-124.9,""
"01-714-1288","Clinical Site 714","714","M","BLACK OR AFRICAN AMERICAN",77,"Xanomeline High Dose","Week 16",16,"QTCF","QTcF","msec",450.9,585.9,-135,""
"01-714-1288","Clinical Site 714","714","M","BLACK OR AFRICAN AMERICAN",77,"Xanomeline High Dose","Week 20",20,"QTCF","QTcF","msec",500.6,585.9,-85.3,""
"01-714-1288","Clinical Site 714","714","M","BLACK OR AFRICAN AMERICAN",77,"Xanomeline High Dose","Week 24",24,"QTCF","QTcF","msec",434.5,585.9,-151.4,""
"01-714-1288","Clinical Site 714","714","M","BLACK OR AFRICAN AMERICAN",77,"Xanomeline High Dose","Week 26",26,"QTCF","QTcF","msec",398.7,585.9,-187.2,""
"01-714-1375","Clinical Site 714","714","F","WHITE",78,"Placebo","Baseline",0,"QTCF","QTcF","msec",493.4,493.4,0,"Y"
"01-714-1375","Clinical Site 714","714","F","WHITE",78,"Placebo","Week 2",2,"QTCF","QTcF","msec",476.1,493.4,-17.3,""
"01-714-1375","Clinical Site 714","714","F","WHITE",78,"Placebo","Week 4",4,"QTCF","QTcF","msec",441.4,493.4,-52,""
"01-714-1375","Clinical Site 714","714","F","WHITE",78,"Placebo","Week 6",6,"QTCF","QTcF","msec",463.3,493.4,-30.1,""
"01-714-1375","Clinical Site 714","714","F","WHITE",78,"Placebo","Week 8",8,"QTCF","QTcF","msec",411.8,493.4,-81.6,""
"01-714-1375","Clinical Site 714","714","F","WHITE",78,"Placebo","Week 12",12,"QTCF","QTcF","msec",488.7,493.4,-4.7,""
"01-714-1375","Clinical Site 714","714","F","WHITE",78,"Placebo","Week 16",16,"QTCF","QTcF","msec",545.3,493.4,51.9,""
"01-714-1375","Clinical Site 714","714","F","WHITE",78,"Placebo","Week 20",20,"QTCF","QTcF","msec",510.1,493.4,16.7,""
"01-714-1375","Clinical Site 714","714","F","WHITE",78,"Placebo","Week 24",24,"QTCF","QTcF","msec",395.3,493.4,-98.1,""
"01-714-1375","Clinical Site 714","714","F","WHITE",78,"Placebo","Week 26",26,"QTCF","QTcF","msec",463.3,493.4,-30.1,""
"01-714-1425","Clinical Site 714","714","M","WHITE",81,"Xanomeline Low Dose","Baseline",0,"QTCF","QTcF","msec",470.7,470.7,0,"Y"
"01-714-1425","Clinical Site 714","714","M","WHITE",81,"Xanomeline Low Dose","Week 2",2,"QTCF","QTcF","msec",412.5,470.7,-58.2,""
"01-715-1085","Clinical Site 715","715","F","WHITE",77,"Xanomeline Low Dose","Baseline",0,"QTCF","QTcF","msec",416,416,0,"Y"
"01-715-1085","Clinical Site 715","715","F","WHITE",77,"Xanomeline Low Dose","Week 2",2,"QTCF","QTcF","msec",427.2,416,11.2,""
"01-715-1085","Clinical Site 715","715","F","WHITE",77,"Xanomeline Low Dose","Week 4",4,"QTCF","QTcF","msec",505.3,416,89.3,""
"01-715-1085","Clinical Site 715","715","F","WHITE",77,"Xanomeline Low Dose","Week 6",6,"QTCF","QTcF","msec",475.5,416,59.5,""
"01-715-1085","Clinical Site 715","715","F","WHITE",77,"Xanomeline Low Dose","Week 8",8,"QTCF","QTcF","msec",358.7,416,-57.3,""
"01-715-1085","Clinical Site 715","715","F","WHITE",77,"Xanomeline Low Dose","Week 12",12,"QTCF","QTcF","msec",609,416,193,""
"01-715-1085","Clinical Site 715","715","F","WHITE",77,"Xanomeline Low Dose","Week 16",16,"QTCF","QTcF","msec",371.6,416,-44.4,""
"01-715-1085","Clinical Site 715","715","F","WHITE",77,"Xanomeline Low Dose","Week 20",20,"QTCF","QTcF","msec",429.5,416,13.5,""
"01-715-1085","Clinical Site 715","715","F","WHITE",77,"Xanomeline Low Dose","Week 24",24,"QTCF","QTcF","msec",416.3,416,0.3,""
"01-715-1085","Clinical Site 715","715","F","WHITE",77,"Xanomeline Low Dose","Week 26",26,"QTCF","QTcF","msec",396.4,416,-19.6,""
"01-715-1107","Clinical Site 715","715","M","WHITE",65,"Xanomeline Low Dose","Baseline",0,"QTCF","QTcF","msec",367.8,367.8,0,"Y"
"01-715-1107","Clinical Site 715","715","M","WHITE",65,"Xanomeline Low Dose","Week 2",2,"QTCF","QTcF","msec",462.2,367.8,94.4,""
"01-715-1107","Clinical Site 715","715","M","WHITE",65,"Xanomeline Low Dose","Week 4",4,"QTCF","QTcF","msec",397.5,367.8,29.7,""
"01-715-1107","Clinical Site 715","715","M","WHITE",65,"Xanomeline Low Dose","Week 6",6,"QTCF","QTcF","msec",379,367.8,11.2,""
"01-715-1107","Clinical Site 715","715","M","WHITE",65,"Xanomeline Low Dose","Week 8",8,"QTCF","QTcF","msec",467.4,367.8,99.6,""
"01-715-1107","Clinical Site 715","715","M","WHITE",65,"Xanomeline Low Dose","Week 12",12,"QTCF","QTcF","msec",353.3,367.8,-14.5,""
"01-715-1155","Clinical Site 715","715","F","WHITE",59,"Placebo","Baseline",0,"QTCF","QTcF","msec",369.7,369.7,0,"Y"
"01-715-1155","Clinical Site 715","715","F","WHITE",59,"Placebo","Week 2",2,"QTCF","QTcF","msec",461.3,369.7,91.6,""
"01-715-1155","Clinical Site 715","715","F","WHITE",59,"Placebo","Week 4",4,"QTCF","QTcF","msec",476.1,369.7,106.4,""
"01-715-1207","Clinical Site 715","715","F","WHITE",78,"Placebo","Baseline",0,"QTCF","QTcF","msec",530.5,530.5,0,"Y"
"01-715-1207","Clinical Site 715","715","F","WHITE",78,"Placebo","Week 2",2,"QTCF","QTcF","msec",439.8,530.5,-90.7,""
"01-715-1207","Clinical Site 715","715","F","WHITE",78,"Placebo","Week 4",4,"QTCF","QTcF","msec",398.4,530.5,-132.1,""
"01-715-1207","Clinical Site 715","715","F","WHITE",78,"Placebo","Week 6",6,"QTCF","QTcF","msec",420.9,530.5,-109.6,""
"01-715-1207","Clinical Site 715","715","F","WHITE",78,"Placebo","Week 8",8,"QTCF","QTcF","msec",497.7,530.5,-32.8,""
"01-715-1207","Clinical Site 715","715","F","WHITE",78,"Placebo","Week 12",12,"QTCF","QTcF","msec",462.3,530.5,-68.2,""
"01-715-1207","Clinical Site 715","715","F","WHITE",78,"Placebo","Week 16",16,"QTCF","QTcF","msec",523.9,530.5,-6.6,""
"01-715-1207","Clinical Site 715","715","F","WHITE",78,"Placebo","Week 20",20,"QTCF","QTcF","msec",350.6,530.5,-179.9,""
"01-715-1207","Clinical Site 715","715","F","WHITE",78,"Placebo","Week 24",24,"QTCF","QTcF","msec",435.9,530.5,-94.6,""
"01-715-1207","Clinical Site 715","715","F","WHITE",78,"Placebo","Week 26",26,"QTCF","QTcF","msec",366.7,530.5,-163.8,""
"01-715-1319","Clinical Site 715","715","M","WHITE",65,"Xanomeline High Dose","Baseline",0,"QTCF","QTcF","msec",454.4,454.4,0,"Y"
"01-715-1319","Clinical Site 715","715","M","WHITE",65,"Xanomeline High Dose","Week 2",2,"QTCF","QTcF","msec",442,454.4,-12.4,""
"01-715-1319","Clinical Site 715","715","M","WHITE",65,"Xanomeline High Dose","Week 4",4,"QTCF","QTcF","msec",373.2,454.4,-81.2,""
"01-715-1321","Clinical Site 715","715","F","WHITE",75,"Xanomeline High Dose","Baseline",0,"QTCF","QTcF","msec",480.7,480.7,0,"Y"
"01-715-1321","Clinical Site 715","715","F","WHITE",75,"Xanomeline High Dose","Week 2",2,"QTCF","QTcF","msec",388.9,480.7,-91.8,""
"01-715-1321","Clinical Site 715","715","F","WHITE",75,"Xanomeline High Dose","Week 4",4,"QTCF","QTcF","msec",469.2,480.7,-11.5,""
"01-715-1321","Clinical Site 715","715","F","WHITE",75,"Xanomeline High Dose","Week 6",6,"QTCF","QTcF","msec",398.4,480.7,-82.3,""
"01-715-1321","Clinical Site 715","715","F","WHITE",75,"Xanomeline High Dose","Week 8",8,"QTCF","QTcF","msec",400.7,480.7,-80,""
"01-715-1321","Clinical Site 715","715","F","WHITE",75,"Xanomeline High Dose","Week 12",12,"QTCF","QTcF","msec",320.3,480.7,-160.4,""
"01-715-1397","Clinical Site 715","715","F","WHITE",76,"Placebo","Baseline",0,"QTCF","QTcF","msec",475.5,475.5,0,"Y"
"01-715-1397","Clinical Site 715","715","F","WHITE",76,"Placebo","Week 2",2,"QTCF","QTcF","msec",402.3,475.5,-73.2,""
"01-715-1397","Clinical Site 715","715","F","WHITE",76,"Placebo","Week 4",4,"QTCF","QTcF","msec",404.2,475.5,-71.3,""
"01-715-1397","Clinical Site 715","715","F","WHITE",76,"Placebo","Week 6",6,"QTCF","QTcF","msec",452.6,475.5,-22.9,""
"01-715-1397","Clinical Site 715","715","F","WHITE",76,"Placebo","Week 8",8,"QTCF","QTcF","msec",554.7,475.5,79.2,""
"01-715-1397","Clinical Site 715","715","F","WHITE",76,"Placebo","Week 12",12,"QTCF","QTcF","msec",352,475.5,-123.5,""
"01-715-1397","Clinical Site 715","715","F","WHITE",76,"Placebo","Week 16",16,"QTCF","QTcF","msec",384.2,475.5,-91.3,""
"01-715-1397","Clinical Site 715","715","F","WHITE",76,"Placebo","Week 20",20,"QTCF","QTcF","msec",433,475.5,-42.5,""
"01-715-1397","Clinical Site 715","715","F","WHITE",76,"Placebo","Week 24",24,"QTCF","QTcF","msec",460.9,475.5,-14.6,""
"01-715-1397","Clinical Site 715","715","F","WHITE",76,"Placebo","Week 26",26,"QTCF","QTcF","msec",442,475.5,-33.5,""
"01-715-1405","Clinical Site 715","715","M","WHITE",69,"Xanomeline Low Dose","Baseline",0,"QTCF","QTcF","msec",484.1,484.1,0,"Y"
"01-715-1405","Clinical Site 715","715","M","WHITE",69,"Xanomeline Low Dose","Week 2",2,"QTCF","QTcF","msec",466,484.1,-18.1,""
"01-716-1024","Clinical Site 716","716","F","WHITE",87,"Placebo","Baseline",0,"QTCF","QTcF","msec",490.4,490.4,0,"Y"
"01-716-1024","Clinical Site 716","716","F","WHITE",87,"Placebo","Week 2",2,"QTCF","QTcF","msec",527.2,490.4,36.8,""
"01-716-1024","Clinical Site 716","716","F","WHITE",87,"Placebo","Week 4",4,"QTCF","QTcF","msec",519.4,490.4,29,""
"01-716-1024","Clinical Site 716","716","F","WHITE",87,"Placebo","Week 6",6,"QTCF","QTcF","msec",547.4,490.4,57,""
"01-716-1024","Clinical Site 716","716","F","WHITE",87,"Placebo","Week 8",8,"QTCF","QTcF","msec",523.5,490.4,33.1,""
"01-716-1024","Clinical Site 716","716","F","WHITE",87,"Placebo","Week 12",12,"QTCF","QTcF","msec",522.8,490.4,32.4,""
"01-716-1024","Clinical Site 716","716","F","WHITE",87,"Placebo","Week 16",16,"QTCF","QTcF","msec",568.5,490.4,78.1,""
"01-716-1024","Clinical Site 716","716","F","WHITE",87,"Placebo","Week 20",20,"QTCF","QTcF","msec",573.8,490.4,83.4,""
"01-716-1024","Clinical Site 716","716","F","WHITE",87,"Placebo","Week 24",24,"QTCF","QTcF","msec",395.3,490.4,-95.1,""
"01-716-1024","Clinical Site 716","716","F","WHITE",87,"Placebo","Week 26",26,"QTCF","QTcF","msec",501.9,490.4,11.5,""
"01-716-1026","Clinical Site 716","716","F","WHITE",73,"Placebo","Baseline",0,"QTCF","QTcF","msec",588.5,588.5,0,"Y"
"01-716-1026","Clinical Site 716","716","F","WHITE",73,"Placebo","Week 2",2,"QTCF","QTcF","msec",510.1,588.5,-78.4,""
"01-716-1026","Clinical Site 716","716","F","WHITE",73,"Placebo","Week 4",4,"QTCF","QTcF","msec",550.5,588.5,-38,""
"01-716-1026","Clinical Site 716","716","F","WHITE",73,"Placebo","Week 6",6,"QTCF","QTcF","msec",625.6,588.5,37.1,""
"01-716-1026","Clinical Site 716","716","F","WHITE",73,"Placebo","Week 8",8,"QTCF","QTcF","msec",530.6,588.5,-57.9,""
"01-716-1026","Clinical Site 716","716","F","WHITE",73,"Placebo","Week 12",12,"QTCF","QTcF","msec",594.3,588.5,5.8,""
"01-716-1026","Clinical Site 716","716","F","WHITE",73,"Placebo","Week 16",16,"QTCF","QTcF","msec",510.1,588.5,-78.4,""
"01-716-1026","Clinical Site 716","716","F","WHITE",73,"Placebo","Week 20",20,"QTCF","QTcF","msec",573.8,588.5,-14.7,""
"01-716-1026","Clinical Site 716","716","F","WHITE",73,"Placebo","Week 24",24,"QTCF","QTcF","msec",647.2,588.5,58.7,""
"01-716-1026","Clinical Site 716","716","F","WHITE",73,"Placebo","Week 26",26,"QTCF","QTcF","msec",584.3,588.5,-4.2,""
"01-716-1030","Clinical Site 716","716","F","WHITE",83,"Xanomeline Low Dose","Baseline",0,"QTCF","QTcF","msec",504,504,0,"Y"
"01-716-1030","Clinical Site 716","716","F","WHITE",83,"Xanomeline Low Dose","Week 2",2,"QTCF","QTcF","msec",408,504,-96,""
"01-716-1044","Clinical Site 716","716","M","WHITE",74,"Placebo","Baseline",0,"QTCF","QTcF","msec",465.4,465.4,0,"Y"
"01-716-1044","Clinical Site 716","716","M","WHITE",74,"Placebo","Week 2",2,"QTCF","QTcF","msec",567.9,465.4,102.5,""
"01-716-1044","Clinical Site 716","716","M","WHITE",74,"Placebo","Week 4",4,"QTCF","QTcF","msec",502.7,465.4,37.3,""
"01-716-1044","Clinical Site 716","716","M","WHITE",74,"Placebo","Week 6",6,"QTCF","QTcF","msec",538,465.4,72.6,""
"01-716-1044","Clinical Site 716","716","M","WHITE",74,"Placebo","Week 8",8,"QTCF","QTcF","msec",545.3,465.4,79.9,""
"01-716-1044","Clinical Site 716","716","M","WHITE",74,"Placebo","Week 12",12,"QTCF","QTcF","msec",462.9,465.4,-2.5,""
"01-716-1044","Clinical Site 716","716","M","WHITE",74,"Placebo","Week 16",16,"QTCF","QTcF","msec",530.6,465.4,65.2,""
"01-716-1044","Clinical Site 716","716","M","WHITE",74,"Placebo","Week 20",20,"QTCF","QTcF","msec",522.8,465.4,57.4,""
"01-716-1044","Clinical Site 716","716","M","WHITE",74,"Placebo","Week 24",24,"QTCF","QTcF","msec",458.3,465.4,-7.1,""
"01-716-1044","Clinical Site 716","716","M","WHITE",74,"Placebo","Week 26",26,"QTCF","QTcF","msec",480,465.4,14.6,""
"01-716-1063","Clinical Site 716","716","M","WHITE",80,"Xanomeline Low Dose","Baseline",0,"QTCF","QTcF","msec",613,613,0,"Y"
"01-716-1063","Clinical Site 716","716","M","WHITE",80,"Xanomeline Low Dose","Week 2",2,"QTCF","QTcF","msec",525.5,613,-87.5,""
"01-716-1063","Clinical Site 716","716","M","WHITE",80,"Xanomeline Low Dose","Week 4",4,"QTCF","QTcF","msec",510.1,613,-102.9,""
"01-716-1063","Clinical Site 716","716","M","WHITE",80,"Xanomeline Low Dose","Week 6",6,"QTCF","QTcF","msec",480,613,-133,""
"01-716-1063","Clinical Site 716","716","M","WHITE",80,"Xanomeline Low Dose","Week 8",8,"QTCF","QTcF","msec",457.6,613,-155.4,""
"01-716-1063","Clinical Site 716","716","M","WHITE",80,"Xanomeline Low Dose","Week 12",12,"QTCF","QTcF","msec",537,613,-76,""
"01-716-1063","Clinical Site 716","716","M","WHITE",80,"Xanomeline Low Dose","Week 16",16,"QTCF","QTcF","msec",442.1,613,-170.9,""
"01-716-1071","Clinical Site 716","716","F","WHITE",78,"Xanomeline High Dose","Baseline",0,"QTCF","QTcF","msec",557.4,557.4,0,"Y"
"01-716-1071","Clinical Site 716","716","F","WHITE",78,"Xanomeline High Dose","Week 2",2,"QTCF","QTcF","msec",599.9,557.4,42.5,""
"01-716-1071","Clinical Site 716","716","F","WHITE",78,"Xanomeline High Dose","Week 4",4,"QTCF","QTcF","msec",537,557.4,-20.4,""
"01-716-1071","Clinical Site 716","716","F","WHITE",78,"Xanomeline High Dose","Week 6",6,"QTCF","QTcF","msec",668.1,557.4,110.7,""
"01-716-1071","Clinical Site 716","716","F","WHITE",78,"Xanomeline High Dose","Week 8",8,"QTCF","QTcF","msec",533.8,557.4,-23.6,""
"01-716-1094","Clinical Site 716","716","M","WHITE",82,"Xanomeline Low Dose","Baseline",0,"QTCF","QTcF","msec",535.6,535.6,0,"Y"
"01-716-1094","Clinical Site 716","716","M","WHITE",82,"Xanomeline Low Dose","Week 2",2,"QTCF","QTcF","msec",369.7,535.6,-165.9,""
"01-716-1094","Clinical Site 716","716","M","WHITE",82,"Xanomeline Low Dose","Week 4",4,"QTCF","QTcF","msec",454.4,535.6,-81.2,""
"01-716-1094","Clinical Site 716","716","M","WHITE",82,"Xanomeline Low Dose","Week 6",6,"QTCF","QTcF","msec",400.4,535.6,-135.2,""
"01-716-1103","Clinical Site 716","716","M","WHITE",79,"Xanomeline Low Dose","Baseline",0,"QTCF","QTcF","msec",450.4,450.4,0,"Y"
"01-716-1103","Clinical Site 716","716","M","WHITE",79,"Xanomeline Low Dose","Week 2",2,"QTCF","QTcF","msec",400.4,450.4,-50,""
"01-716-1103","Clinical Site 716","716","M","WHITE",79,"Xanomeline Low Dose","Week 4",4,"QTCF","QTcF","msec",514.8,450.4,64.4,""
"01-716-1103","Clinical Site 716","716","M","WHITE",79,"Xanomeline Low Dose","Week 6",6,"QTCF","QTcF","msec",429.1,450.4,-21.3,""
"01-716-1103","Clinical Site 716","716","M","WHITE",79,"Xanomeline Low Dose","Week 8",8,"QTCF","QTcF","msec",446.3,450.4,-4.1,""
"01-716-1103","Clinical Site 716","716","M","WHITE",79,"Xanomeline Low Dose","Week 12",12,"QTCF","QTcF","msec",424.6,450.4,-25.8,""
"01-716-1103","Clinical Site 716","716","M","WHITE",79,"Xanomeline Low Dose","Week 16",16,"QTCF","QTcF","msec",412.5,450.4,-37.9,""
"01-716-1103","Clinical Site 716","716","M","WHITE",79,"Xanomeline Low Dose","Week 20",20,"QTCF","QTcF","msec",348,450.4,-102.4,""
"01-716-1103","Clinical Site 716","716","M","WHITE",79,"Xanomeline Low Dose","Week 24",24,"QTCF","QTcF","msec",475.4,450.4,25,""
"01-716-1103","Clinical Site 716","716","M","WHITE",79,"Xanomeline Low Dose","Week 26",26,"QTCF","QTcF","msec",371.6,450.4,-78.8,""
"01-716-1108","Clinical Site 716","716","F","WHITE",86,"Placebo","Baseline",0,"QTCF","QTcF","msec",506.4,506.4,0,"Y"
"01-716-1108","Clinical Site 716","716","F","WHITE",86,"Placebo","Week 2",2,"QTCF","QTcF","msec",539.5,506.4,33.1,""
"01-716-1108","Clinical Site 716","716","F","WHITE",86,"Placebo","Week 4",4,"QTCF","QTcF","msec",437.9,506.4,-68.5,""
"01-716-1108","Clinical Site 716","716","F","WHITE",86,"Placebo","Week 6",6,"QTCF","QTcF","msec",441.4,506.4,-65,""
"01-716-1108","Clinical Site 716","716","F","WHITE",86,"Placebo","Week 8",8,"QTCF","QTcF","msec",471.8,506.4,-34.6,""
"01-716-1108","Clinical Site 716","716","F","WHITE",86,"Placebo","Week 12",12,"QTCF","QTcF","msec",484.6,506.4,-21.8,""
"01-716-1108","Clinical Site 716","716","F","WHITE",86,"Placebo","Week 16",16,"QTCF","QTcF","msec",490.4,506.4,-16,""
"01-716-1108","Clinical Site 716","716","F","WHITE",86,"Placebo","Week 20",20,"QTCF","QTcF","msec",514.8,506.4,8.4,""
"01-716-1108","Clinical Site 716","716","F","WHITE",86,"Placebo","Week 24",24,"QTCF","QTcF","msec",458.4,506.4,-48,""
"01-716-1108","Clinical Site 716","716","F","WHITE",86,"Placebo","Week 26",26,"QTCF","QTcF","msec",437.9,506.4,-68.5,""
"01-716-1151","Clinical Site 716","716","F","WHITE",83,"Xanomeline Low Dose","Baseline",0,"QTCF","QTcF","msec",460.6,460.6,0,"Y"
"01-716-1151","Clinical Site 716","716","F","WHITE",83,"Xanomeline Low Dose","Week 2",2,"QTCF","QTcF","msec",519.4,460.6,58.8,""
"01-716-1151","Clinical Site 716","716","F","WHITE",83,"Xanomeline Low Dose","Week 4",4,"QTCF","QTcF","msec",454.8,460.6,-5.8,""
"01-716-1151","Clinical Site 716","716","F","WHITE",83,"Xanomeline Low Dose","Week 6",6,"QTCF","QTcF","msec",500.4,460.6,39.8,""
"01-716-1151","Clinical Site 716","716","F","WHITE",83,"Xanomeline Low Dose","Week 8",8,"QTCF","QTcF","msec",522.8,460.6,62.2,""
"01-716-1151","Clinical Site 716","716","F","WHITE",83,"Xanomeline Low Dose","Week 12",12,"QTCF","QTcF","msec",513,460.6,52.4,""
"01-716-1151","Clinical Site 716","716","F","WHITE",83,"Xanomeline Low Dose","Week 16",16,"QTCF","QTcF","msec",432,460.6,-28.6,""
"01-716-1157","Clinical Site 716","716","M","WHITE",85,"Xanomeline Low Dose","Baseline",0,"QTCF","QTcF","msec",395.2,395.2,0,"Y"
"01-716-1157","Clinical Site 716","716","M","WHITE",85,"Xanomeline Low Dose","Week 2",2,"QTCF","QTcF","msec",417.1,395.2,21.9,""
"01-716-1157","Clinical Site 716","716","M","WHITE",85,"Xanomeline Low Dose","Week 4",4,"QTCF","QTcF","msec",401,395.2,5.8,""
"01-716-1157","Clinical Site 716","716","M","WHITE",85,"Xanomeline Low Dose","Week 6",6,"QTCF","QTcF","msec",400.4,395.2,5.2,""
"01-716-1157","Clinical Site 716","716","M","WHITE",85,"Xanomeline Low Dose","Week 8",8,"QTCF","QTcF","msec",397.9,395.2,2.7,""
"01-716-1157","Clinical Site 716","716","M","WHITE",85,"Xanomeline Low Dose","Week 12",12,"QTCF","QTcF","msec",391.6,395.2,-3.6,""
"01-716-1157","Clinical Site 716","716","M","WHITE",85,"Xanomeline Low Dose","Week 16",16,"QTCF","QTcF","msec",445.6,395.2,50.4,""
"01-716-1157","Clinical Site 716","716","M","WHITE",85,"Xanomeline Low Dose","Week 20",20,"QTCF","QTcF","msec",437.9,395.2,42.7,""
"01-716-1157","Clinical Site 716","716","M","WHITE",85,"Xanomeline Low Dose","Week 24",24,"QTCF","QTcF","msec",354.7,395.2,-40.5,""
"01-716-1157","Clinical Site 716","716","M","WHITE",85,"Xanomeline Low Dose","Week 26",26,"QTCF","QTcF","msec",429.5,395.2,34.3,""
"01-716-1160","Clinical Site 716","716","F","WHITE",83,"Placebo","Baseline",0,"QTCF","QTcF","msec",432,432,0,"Y"
"01-716-1160","Clinical Site 716","716","F","WHITE",83,"Placebo","Week 2",2,"QTCF","QTcF","msec",429.5,432,-2.5,""
"01-716-1160","Clinical Site 716","716","F","WHITE",83,"Placebo","Week 4",4,"QTCF","QTcF","msec",454.8,432,22.8,""
"01-716-1160","Clinical Site 716","716","F","WHITE",83,"Placebo","Week 6",6,"QTCF","QTcF","msec",429.1,432,-2.9,""
"01-716-1160","Clinical Site 716","716","F","WHITE",83,"Placebo","Week 8",8,"QTCF","QTcF","msec",437.9,432,5.9,""
"01-716-1160","Clinical Site 716","716","F","WHITE",83,"Placebo","Week 12",12,"QTCF","QTcF","msec",422.6,432,-9.4,""
"01-716-1160","Clinical Site 716","716","F","WHITE",83,"Placebo","Week 16",16,"QTCF","QTcF","msec",421.2,432,-10.8,""
"01-716-1160","Clinical Site 716","716","F","WHITE",83,"Placebo","Week 20",20,"QTCF","QTcF","msec",450.4,432,18.4,""
"01-716-1160","Clinical Site 716","716","F","WHITE",83,"Placebo","Week 24",24,"QTCF","QTcF","msec",487.9,432,55.9,""
"01-716-1160","Clinical Site 716","716","F","WHITE",83,"Placebo","Week 26",26,"QTCF","QTcF","msec",458.4,432,26.4,""
"01-716-1167","Clinical Site 716","716","M","WHITE",68,"Xanomeline Low Dose","Baseline",0,"QTCF","QTcF","msec",495,495,0,"Y"
"01-716-1167","Clinical Site 716","716","M","WHITE",68,"Xanomeline Low Dose","Week 2",2,"QTCF","QTcF","msec",453.7,495,-41.3,""
"01-716-1167","Clinical Site 716","716","M","WHITE",68,"Xanomeline Low Dose","Week 4",4,"QTCF","QTcF","msec",475.4,495,-19.6,""
"01-716-1167","Clinical Site 716","716","M","WHITE",68,"Xanomeline Low Dose","Week 6",6,"QTCF","QTcF","msec",446.3,495,-48.7,""
"01-716-1167","Clinical Site 716","716","M","WHITE",68,"Xanomeline Low Dose","Week 8",8,"QTCF","QTcF","msec",462.9,495,-32.1,""
"01-716-1167","Clinical Site 716","716","M","WHITE",68,"Xanomeline Low Dose","Week 12",12,"QTCF","QTcF","msec",449.1,495,-45.9,""
"01-716-1167","Clinical Site 716","716","M","WHITE",68,"Xanomeline Low Dose","Week 16",16,"QTCF","QTcF","msec",409.4,495,-85.6,""
"01-716-1167","Clinical Site 716","716","M","WHITE",68,"Xanomeline Low Dose","Week 20",20,"QTCF","QTcF","msec",514.8,495,19.8,""
"01-716-1167","Clinical Site 716","716","M","WHITE",68,"Xanomeline Low Dose","Week 24",24,"QTCF","QTcF","msec",480,495,-15,""
"01-716-1167","Clinical Site 716","716","M","WHITE",68,"Xanomeline Low Dose","Week 26",26,"QTCF","QTcF","msec",392.9,495,-102.1,""
"01-716-1177","Clinical Site 716","716","M","WHITE",72,"Placebo","Baseline",0,"QTCF","QTcF","msec",398.9,398.9,0,"Y"
"01-716-1177","Clinical Site 716","716","M","WHITE",72,"Placebo","Week 2",2,"QTCF","QTcF","msec",429.1,398.9,30.2,""
"01-716-1177","Clinical Site 716","716","M","WHITE",72,"Placebo","Week 4",4,"QTCF","QTcF","msec",371.6,398.9,-27.3,""
"01-716-1177","Clinical Site 716","716","M","WHITE",72,"Placebo","Week 6",6,"QTCF","QTcF","msec",376.5,398.9,-22.4,""
"01-716-1177","Clinical Site 716","716","M","WHITE",72,"Placebo","Week 8",8,"QTCF","QTcF","msec",479.4,398.9,80.5,""
"01-716-1177","Clinical Site 716","716","M","WHITE",72,"Placebo","Week 12",12,"QTCF","QTcF","msec",421.2,398.9,22.3,""
"01-716-1177","Clinical Site 716","716","M","WHITE",72,"Placebo","Week 16",16,"QTCF","QTcF","msec",437.9,398.9,39,""
"01-716-1177","Clinical Site 716","716","M","WHITE",72,"Placebo","Week 20",20,"QTCF","QTcF","msec",400.4,398.9,1.5,""
"01-716-1177","Clinical Site 716","716","M","WHITE",72,"Placebo","Week 24",24,"QTCF","QTcF","msec",429.1,398.9,30.2,""
"01-716-1177","Clinical Site 716","716","M","WHITE",72,"Placebo","Week 26",26,"QTCF","QTcF","msec",420,398.9,21.1,""
"01-716-1189","Clinical Site 716","716","M","WHITE",81,"Xanomeline High Dose","Baseline",0,"QTCF","QTcF","msec",445.9,445.9,0,"Y"
"01-716-1189","Clinical Site 716","716","M","WHITE",81,"Xanomeline High Dose","Week 2",2,"QTCF","QTcF","msec",365.9,445.9,-80,""
"01-716-1189","Clinical Site 716","716","M","WHITE",81,"Xanomeline High Dose","Week 4",4,"QTCF","QTcF","msec",384,445.9,-61.9,""
"01-716-1189","Clinical Site 716","716","M","WHITE",81,"Xanomeline High Dose","Week 6",6,"QTCF","QTcF","msec",450.4,445.9,4.5,""
"01-716-1189","Clinical Site 716","716","M","WHITE",81,"Xanomeline High Dose","Week 8",8,"QTCF","QTcF","msec",433.6,445.9,-12.3,""
"01-716-1189","Clinical Site 716","716","M","WHITE",81,"Xanomeline High Dose","Week 12",12,"QTCF","QTcF","msec",442.1,445.9,-3.8,""
"01-716-1189","Clinical Site 716","716","M","WHITE",81,"Xanomeline High Dose","Week 16",16,"QTCF","QTcF","msec",405.5,445.9,-40.4,""
"01-716-1189","Clinical Site 716","716","M","WHITE",81,"Xanomeline High Dose","Week 20",20,"QTCF","QTcF","msec",379,445.9,-66.9,""
"01-716-1229","Clinical Site 716","716","F","WHITE",73,"Xanomeline High Dose","Baseline",0,"QTCF","QTcF","msec",465.9,465.9,0,"Y"
"01-716-1229","Clinical Site 716","716","F","WHITE",73,"Xanomeline High Dose","Week 2",2,"QTCF","QTcF","msec",492,465.9,26.1,""
"01-716-1229","Clinical Site 716","716","F","WHITE",73,"Xanomeline High Dose","Week 4",4,"QTCF","QTcF","msec",522.8,465.9,56.9,""
"01-716-1229","Clinical Site 716","716","F","WHITE",73,"Xanomeline High Dose","Week 6",6,"QTCF","QTcF","msec",480,465.9,14.1,""
